fragment_id,time_point,acc_x,acc_y,acc_z,acc_xg,acc_yg,acc_zg,behavior_id
0,27,0.3,-0.3,0.1,0.6,4.5,8.8,0
0,108,0.1,0,-0.4,0.4,4.7,8.4,0
0,198,0.1,0,0.3,0.9,4.6,9,0
0,297,0.1,-0.1,-0.5,0.8,4.7,7.2,0
0,388,0.1,0.2,0.6,0.9,4.7,8.9,0
0,471,-0.2,0,0.2,0.6,4.9,8.6,0
0,560,0,0,0.1,0.6,4.9,8.6,0
0,644,0,0,-0.7,1.3,5,8.3,0
0,730,0.4,0,-0.2,1,5.1,8.3,0
0,814,-0.1,0,-0.2,0.6,5,8.1,0
0,903,-0.1,0,0.3,0.6,5,8.6,0
0,990,-0.1,0,-0.1,0.6,5,8.1,0
0,1078,-0.3,0.2,0.3,0.4,5.2,8.5,0
0,1162,0.2,-0.1,0.4,0.7,4.9,8.5,0
0,1248,-0.9,-0.1,-0.3,-0.2,5,9.3,0
0,1342,0.4,-0.2,0.7,0.4,4.8,9,0
0,1427,0,-0.1,-0.6,0.6,4.9,7.9,0
0,1516,-0.1,0,0.7,0.5,5,8.9,0
0,1603,0,-0.1,-0.2,0.6,4.8,8.3,0
0,1684,0,0,0,0.6,4.9,8.6,0
0,1772,0.1,0,-0.2,0.6,4.9,8.2,0
0,1860,0.1,0,0,0.8,4.8,8.6,0
0,1955,0.1,0,0,0.7,4.8,8.5,0
0,2041,0,0.1,0,0.7,4.9,8.5,0
0,2127,0,0,0.1,0.6,4.8,8.4,0
0,2212,0.1,0,0,0.6,4.8,8.5,0
0,2298,0.1,0,0.1,0.7,4.8,8.6,0
0,2384,0,0,-0.1,0.5,4.8,8.4,0
0,2477,0,0.1,0.2,0.5,4.8,8.6,0
0,2561,0.2,0,0.2,0.7,4.8,8.7,0
0,2648,0.3,-0.1,0,1,4.6,8.4,0
0,2731,-0.1,0.1,-0.8,0.7,4.6,8,0
0,2816,0.2,-0.1,-0.3,0.9,4.6,8.7,0
0,2913,-0.1,0.1,-0.1,0.6,5,8.1,0
0,3008,0,0,0.1,0.7,4.8,8.6,0
0,3096,0,0,0,0.9,4.7,8.5,0
0,3189,-0.1,0.1,0.1,0.8,4.7,8.5,0
0,3276,0,0,-0.1,0.8,4.7,8.5,0
0,3362,0,0.1,0.2,0.8,4.7,8.9,0
0,3448,0.1,0,-0.1,0.8,4.7,8.3,0
0,3536,-0.1,0.1,0.1,0.7,4.6,8.5,0
0,3621,-0.4,0,0.3,0.6,4.8,9.3,0
0,3713,-0.2,0,-0.4,0.6,4.6,8.4,0
0,3804,0,-0.1,0.1,0.8,4.5,8.6,0
0,3893,0,0.1,0.2,0.7,4.4,8.8,0
0,3989,-0.1,0,0,0.7,4.6,8.3,0
0,4081,0,0,0.1,0.7,4.6,8.8,0
0,4168,0,0,-0.4,0.7,4.8,8.3,0
0,4251,-0.1,0,0,0.5,4.7,8.8,0
0,4336,0,0,0,0.5,4.7,8.5,0
0,4421,0,0,0,0.7,4.7,8.4,0
0,4505,0,0,-0.1,0.7,4.7,8.5,0
0,4596,0,0.1,0.2,0.6,4.7,8.8,0
0,4681,-0.1,0,0,0.7,4.6,8.5,0
0,4768,-0.2,-0.1,0.2,0.9,4.8,8.6,0
0,4853,-0.1,-0.1,0,0.8,4.7,7.9,0
0,4951,0.3,0.1,0.1,0.8,4.7,8.6,0
1,58,-0.1,0,0.3,0.8,5.1,8.9,0
1,146,0.1,0,0,0.8,5,8.4,0
1,233,0,0.1,0.3,0.9,4.9,8.3,0
1,322,0,0,-0.1,0.8,5.1,8.1,0
1,408,-0.1,0,0.2,0.7,5,8.5,0
1,491,0,0,0.1,0.7,5,8.3,0
1,579,0,0,0,0.7,5,8.4,0
1,666,-0.1,0,0.1,0.7,5,8.5,0
1,749,0.1,-0.1,0.1,0.6,5,8.1,0
1,839,-0.2,0.1,0.1,0.4,5,8.4,0
1,927,-0.1,0,0.1,0.5,5,8.4,0
1,1013,0,0,-0.2,0.6,4.9,8.3,0
1,1101,0,0.1,0.1,0.6,5,8.4,0
1,1185,0,0,0.1,0.6,4.9,8.4,0
1,1274,0,0,0.1,0.6,4.9,8.4,0
1,1358,0.1,0,0.1,0.6,4.9,8.5,0
1,1442,0,0,0,0.5,4.8,8.6,0
1,1542,0,0,-0.2,0.7,4.8,8.4,0
1,1626,0,0,0,0.8,4.8,8.7,0
1,1724,-0.1,0,-0.1,0.7,4.8,8.6,0
1,1808,0,0,0.1,0.8,4.8,8.7,0
1,1893,0.1,0,0,0.8,4.8,8.6,0
1,1981,0,0,0.1,0.8,4.7,8.7,0
1,2071,0,0,0.1,0.7,4.8,8.7,0
1,2164,0,0,0,0.7,4.8,8.6,0
1,2254,0,0,0.2,0.6,4.8,8.6,0
1,2340,0.1,0,-0.1,0.8,4.7,8.3,0
1,2423,0.1,0.1,0.1,0.6,4.8,8.4,0
1,2528,-0.1,0,0,0.7,4.8,8.2,0
1,2614,0.1,0.1,0.6,0.8,5,8.8,0
1,2703,-0.1,0.1,0.2,0.6,4.8,8.5,0
1,2792,0,-0.1,0.1,0.7,4.7,8.5,0
1,2884,-0.1,0.2,0,0.6,4.8,8.5,0
1,2978,-0.1,0.1,-0.1,0.7,4.8,8.5,0
1,3066,0.2,-0.1,0.4,0.9,4.7,8.7,0
1,3156,-0.2,0.1,0.4,0.8,4.9,9,0
1,3245,0,0,-0.2,0.7,4.8,8.1,0
1,3329,0.1,0,0.1,0.7,4.7,8.7,0
1,3414,0,0.1,0.1,0.6,4.8,8.7,0
1,3499,-0.1,0,0,0.7,4.7,8.5,0
1,3596,0,0,0.1,0.7,4.7,8.6,0
1,3682,0,0,0,0.7,4.7,8.6,0
1,3770,0.1,0,0.4,0.5,4.8,8.9,0
1,3857,-0.1,0.1,0.1,0.5,4.6,8.4,0
1,3945,0,0,0,0.7,4.7,8.5,0
1,4038,-0.1,0.1,0.2,0.6,4.8,8.2,0
1,4125,-0.2,0.1,0.3,0.4,4.8,8.6,0
1,4212,-0.5,0.1,-0.5,0.4,4.6,8.9,0
1,4326,-0.1,0.1,0.1,0.6,4.8,8.4,0
1,4411,-0.1,0,-0.1,0.7,4.7,8.4,0
1,4507,0.1,0,0.2,0.8,4.7,8.5,0
1,4594,-0.1,0.1,-0.2,0.8,4.7,8.3,0
1,4691,-0.1,0.1,0.5,0.5,4.7,9.4,0
1,4778,-0.1,0,0,0.7,4.8,8.4,0
1,4863,0.1,0,0.1,0.8,4.8,8.9,0
1,4962,0.1,0,0,1,5,8.2,0
2,17,0,0,-0.1,0.8,4.9,8.7,0
2,103,0.1,0,0.1,0.7,4.8,8.4,0
2,188,0,-0.1,-0.8,1,4.7,8,0
2,271,0.1,-0.2,0.3,1.1,5.1,9.2,0
2,367,-0.4,0.2,0.2,0.7,4.8,8.6,0
2,464,-0.2,0,0.1,0.9,4.8,8.5,0
2,560,0,0.1,0.3,0.8,4.8,8.9,0
2,645,0,0,0,0.7,4.8,8.3,0
2,730,0,0.1,0.2,0.7,4.8,8.8,0
2,822,0,0,0,0.7,4.8,8.5,0
2,909,0,0,0,0.7,4.9,8.6,0
2,1000,-0.2,0.1,0,0.6,4.8,8.4,0
2,1088,-0.1,0,0,0.5,4.8,8.4,0
2,1178,0,0,-0.1,0.6,4.8,8.4,0
2,1264,0,0.1,0,0.8,4.8,8.5,0
2,1347,0,0,0,0.7,4.8,8.6,0
2,1432,0.2,0.1,0,0.8,4.7,8.6,0
2,1518,-0.1,0.1,0.1,0.9,4.7,8.6,0
2,1608,0.1,-0.1,-0.2,0.7,4.8,7.9,0
2,1693,-0.1,0,0.2,0.5,4.8,8.7,0
2,1780,-0.2,-0.1,0.6,0.6,4.9,9.2,0
2,1870,0.1,-0.1,-0.1,0.6,4.8,8.5,0
2,1954,-0.1,0.1,0,0.5,4.8,8.6,0
2,2045,-0.4,0,-0.2,1.3,5.2,7.2,0
2,2131,0.1,-0.1,0.5,1.8,5.3,8.1,0
2,2230,0,0,-0.3,1,5.1,7.8,0
2,2321,-0.1,0.1,0.7,0.8,5.2,8.9,0
2,2415,-0.2,-0.1,-0.1,0.9,5.1,8.6,0
2,2511,0,0.1,0.2,0.8,5.2,8.3,0
2,2599,0,0,-0.1,1,5.2,7.8,0
2,2685,-0.1,0,-0.1,0.9,5.3,8.2,0
2,2773,-0.5,-0.3,0.6,1,5.3,8.8,0
2,2864,-0.1,0,0.2,1,5.3,8.3,0
2,2949,-0.1,0,-0.5,1.1,5.4,8.2,0
2,3034,0.4,-0.1,0,1.4,5.1,8,0
2,3118,-0.2,-0.1,0,0.6,5.2,8.4,0
2,3203,-0.4,0,0.4,0.5,5.3,8.5,0
2,3292,-0.4,0.2,-0.1,0.7,5.3,8.3,0
2,3377,0,0.1,-0.2,0.8,5.3,8.1,0
2,3461,0.3,-0.1,0.2,1.3,5,8.4,0
2,3546,-0.2,0.1,-0.3,0.7,5.2,7.7,0
2,3632,-0.5,0.1,0.4,0.4,5.1,8.3,0
2,3720,0.2,0,0.2,1.4,4.9,8.5,0
2,3804,0.6,-0.2,0.2,1.6,4.5,8.5,0
2,3889,0.4,0,-0.3,1.2,4.5,8.4,0
2,3980,-0.4,-0.3,1.2,0.8,4.5,9.8,0
2,4087,0.7,-0.6,-1.2,1.5,4.4,7.5,0
2,4180,-0.3,0.2,-1.3,0.6,5,7.3,0
2,4273,0,0.2,0.2,0.3,5.1,8.4,0
2,4361,0,0,0.1,0.6,4.9,8.4,0
2,4448,-0.2,0,-0.1,0.2,5,8.4,0
2,4533,0.2,0.2,0,0.6,5.1,8.4,0
2,4625,0.1,0.1,0.2,0.4,4.9,8.3,0
2,4713,0.1,0,0.3,0.4,4.9,8.8,0
2,4799,0.2,0,0.2,0.4,4.9,8.4,0
2,4887,-0.1,0,0.2,0.3,5,8.6,0
2,4993,0.1,-0.1,-0.6,0.3,4.9,8,0
3,85,0.1,0,-0.1,0.8,4.8,8.2,0
3,168,-0.1,0.1,-0.3,0.4,5.1,7.9,0
3,259,-0.1,0.1,0.2,0.3,5.1,8.6,0
3,345,0,0,0.1,0.2,5.2,8.3,0
3,442,0,0,-0.2,0.2,5.1,7.9,0
3,531,-0.2,0.2,-0.2,-0.5,5,9,0
3,616,0.1,-0.1,0,0.2,5,8.3,0
3,706,0.2,0,-0.4,0.4,5.1,7.9,0
3,802,-0.1,0,0.8,0.3,5.1,8.6,0
3,891,0,-0.1,-0.2,0.3,5,8.3,0
3,983,0.1,0,0,0.2,5.1,8.4,0
3,1069,0.2,0,0.2,0.6,5,8.9,0
3,1157,-0.1,0,0.2,0.5,5,8.5,0
3,1241,0.1,0,-0.2,0.4,5.1,8,0
3,1326,-0.4,0.3,-0.8,-0.6,5.1,9.1,0
3,1410,0,-0.1,-0.1,0,5.1,8,0
3,1509,0,0,0,0.1,5.3,8.1,0
3,1618,0.5,-0.1,0.3,0.7,5.4,7.7,0
3,1706,0,0,0.3,0.4,5.5,8.1,0
3,1796,-0.1,0,-0.4,0.1,5.3,8.2,0
3,1888,-0.1,-0.1,0,0.2,5.2,8.3,0
3,1980,0,0.1,-0.4,0.2,5.3,7.7,0
3,2065,0,0.1,0.6,0.2,5.3,9.1,0
3,2155,0,0,0,0.1,5.3,7.9,0
3,2245,-0.4,0.1,0.6,0,5.5,8.4,0
3,2342,0.4,-0.3,-0.2,0.4,5.2,8.5,0
3,2434,0.1,0,-0.2,0.2,5.2,7.9,0
3,2535,0.3,0,0,0.4,5,8.1,0
3,2630,0,-0.1,-0.3,0.5,5.1,8.2,0
3,2714,-0.1,0.1,0.5,0.3,5.1,8.8,0
3,2798,0.1,0,0,0.3,5,8.4,0
3,2888,0.2,-0.1,-0.1,0.7,5,8.3,0
3,2977,0,0,0.1,0.6,5.1,8.4,0
3,3061,0,0,-0.1,0.6,5,8.2,0
3,3153,-0.1,0.1,0.2,0.5,5,8.2,0
3,3238,0,0,0.1,0.5,5,8.4,0
3,3321,-0.1,0.1,0,0.5,5,8.4,0
3,3408,0,0,0.2,0.5,4.9,8.5,0
3,3492,0,0,-0.2,0.6,4.9,8,0
3,3578,-0.1,0,0,0.6,5,8.5,0
3,3663,0,0,-0.2,0.6,4.9,8.3,0
3,3750,0.1,0,0.3,0.5,4.9,8.1,0
3,3845,-0.2,0.4,0.9,0,5.3,8.6,0
3,3930,0.2,-0.1,-0.1,0.7,4.9,8.5,0
3,4030,-0.2,0,-0.2,0.4,4.9,8.6,0
3,4119,0,-0.1,1.5,0.8,4.6,9.5,0
3,4202,0.3,0,-0.4,1.2,4.5,7.5,0
3,4299,0.1,0.3,0.9,1.1,4.8,8.9,0
3,4388,0.1,0.1,0,0.8,4.8,8.1,0
3,4475,-0.2,0,-0.4,0.5,4.9,8.4,0
3,4561,-0.4,0.4,1.7,0.3,5.2,9.2,0
3,4664,-0.1,0,-0.6,0.6,4.8,7.7,0
3,4770,-0.3,0.1,1.4,0.7,5,8.6,0
3,4853,0.2,-0.1,-0.3,0.8,4.8,7.7,0
3,4995,0.1,0,0.7,0.7,4.9,8.8,0
4,78,0,0,-0.2,0.8,4.8,8.1,0
4,169,-0.2,0,0.1,0.8,4.8,8.7,0
4,252,0,0,-0.3,0.7,4.8,8.6,0
4,337,0.3,-0.1,-0.4,1.2,4.6,8.1,0
4,428,0.4,-0.2,0.5,0.7,4.7,8.6,0
4,518,0.1,0,0.1,0.6,4.8,8.6,0
4,604,0.1,0,-0.1,0.6,4.8,8.3,0
4,688,0.2,0.3,-0.5,0.9,4.8,8.1,0
4,784,0,0.1,0.4,1.5,3.7,9.2,0
4,876,-0.7,-0.1,0,0,4.1,9.6,0
4,964,0.1,-0.1,0.7,0.5,4.3,9.3,0
4,1049,0,0.1,-1.1,0.8,4.6,8.3,0
4,1135,-0.4,0.2,0,0.1,4.7,8.7,0
4,1238,-0.4,0.1,1.3,0,4.8,9.5,0
4,1324,-0.1,-0.1,0.1,0.8,4.8,8,0
4,1408,-0.4,-0.2,0.6,0.4,4.8,8.4,0
4,1500,0.1,0,0.2,1.1,4.8,8.3,0
4,1587,0.6,0,-0.4,1.3,4.5,8.2,0
4,1680,-1.3,-0.5,1.2,-0.3,4.9,10.4,0
4,1768,0.5,-0.4,-0.5,1.2,4.1,9.1,0
4,1853,-0.1,0.1,-1.1,0.5,4.7,7.4,0
4,1964,0.1,0,0.8,0.8,4.4,9.4,0
4,2049,-0.2,0.1,-0.3,0.7,4.5,8.2,0
4,2137,0.1,-0.1,-0.2,1,4.3,7.8,0
4,2222,-0.1,0.4,0.9,1.3,4.5,8.9,0
4,2308,-0.3,0.2,-1.4,0.8,4.3,8.5,0
4,2403,0,-0.3,0.5,0.5,4.4,9.4,0
4,2492,0.2,0,-0.2,0.4,4.5,8.5,0
4,2592,0.4,-0.1,-0.7,0.2,4.2,7.6,0
4,2703,-0.3,0.4,0.6,0.7,4.7,7.6,0
4,2790,0.3,-0.1,-0.1,0.7,4.7,8.7,0
4,2889,-0.2,0.2,0.3,0.3,4.8,9.2,0
4,2979,0.9,0,-0.3,1.5,4.4,9.1,0
4,3074,-0.4,0.4,1.8,0.1,5.2,9.9,0
4,3163,0.2,-0.2,0.2,0.7,4.5,8.8,0
4,3252,-0.2,0,0.4,0.7,4.5,8.7,0
4,3343,-0.3,0.1,0.3,0.3,4.7,8.8,0
4,3429,-0.1,0,-0.2,0.3,4.5,8.9,0
4,3543,0,-0.2,0.5,0.3,4.5,8.7,0
4,3626,0.2,-0.2,-0.8,-0.5,5.1,7.2,0
4,3726,0.3,0.1,-0.6,1,4.5,8.6,0
4,3808,0,-0.1,-0.9,0.7,4.7,7.5,0
4,3893,-0.3,0.1,0.1,0.1,4.9,8.6,0
4,3985,-0.1,0,0.5,0.7,4.7,9,0
4,4077,0.2,-0.1,0.5,1.2,4.6,9.7,0
4,4164,0,0,0.2,0.5,4.7,8.6,0
4,4248,0.1,0,-1.2,0.7,4.2,8.1,0
4,4345,0.4,-0.1,0.2,0.7,4.6,8.9,0
4,4432,0,0.1,-0.3,0.5,4.9,8.1,0
4,4517,0,-0.1,1,0.2,5.3,8.2,0
4,4608,0.4,0,-0.7,0.8,4.8,7.9,0
4,4701,0.2,-0.2,-1.7,0,5.3,5.8,0
4,4796,-0.3,0.6,1.4,0.3,5.1,9.6,0
4,4881,0.2,0,0.3,0.5,4.8,8.1,0
4,4967,-0.1,0.1,-0.2,0.6,4.8,8.6,0
5,54,0.2,0,0.2,0.7,4.5,8.8,0
5,140,0.1,0.1,0.2,0.7,4.9,8.7,0
5,234,-0.1,0.1,0.1,0.5,4.8,8.8,0
5,323,0.2,0.1,0.8,1.1,5.1,9.2,0
5,417,0.1,0,0.8,0.4,4.9,8.9,0
5,520,-0.2,0.1,0.6,0.3,4.9,8.8,0
5,619,-0.8,0.7,1.8,-0.8,6,9,0
5,703,0.1,0.1,0.3,1.1,4.9,7.4,0
5,787,-1.4,0.5,-0.4,0.2,5.4,7.8,0
5,887,0.2,0.1,1.3,0.8,4.9,9.8,0
5,978,-0.1,0,0,0.8,5.1,8.5,0
5,1061,-0.4,0,-0.7,0.3,5.2,7.2,0
5,1151,0.6,0.3,1,1.4,4.6,8.8,0
5,1243,-0.1,0.1,-0.3,0.9,4.9,7.7,0
5,1329,-0.1,0.1,0.3,0.9,4.9,9.1,0
5,1416,-0.1,0,0,0.5,4.8,8.5,0
5,1514,-0.1,0.1,0,0.5,5,8.5,0
5,1599,-0.1,0.1,0.3,0.7,4.9,8.6,0
5,1684,-0.3,0,-0.1,0.3,4.8,8.4,0
5,1768,0.6,-0.2,-1.2,0.8,4.6,7.7,0
5,1878,0.2,0,1.5,0.6,4.8,8.7,0
5,1977,0.6,0,-1.8,1,4.4,8.8,0
5,2075,0.2,0.3,2.1,-0.7,5.4,8.7,0
5,2168,0.2,-0.1,-0.9,0.3,4.7,8,0
5,2251,0,0.1,1,0.1,4.9,9.7,0
5,2334,0.4,-0.2,-0.2,0.4,4.7,8.4,0
5,2425,0,0,0,0.6,4.8,8.6,0
5,2510,-0.1,0.1,-0.1,0.5,4.8,8.4,0
5,2601,0.3,-0.1,0.2,0.7,4.7,9.1,0
5,2688,-0.1,0.2,-0.4,0.6,4.9,8.1,0
5,2774,0.2,-0.1,-0.2,0.9,4.4,8.9,0
5,2871,-0.1,-0.1,0.2,0.7,4.6,8.1,0
5,2997,0.4,0,0.1,0.9,4.3,9.2,0
5,3086,-0.1,0.3,-0.1,0.1,5,8,0
5,3188,0,0.1,0.2,0.7,4.8,8.5,0
5,3277,-0.5,-0.1,0.4,0.7,4.7,8.7,0
5,3366,-0.3,-0.1,0.6,0.5,4.8,8.8,0
5,3466,-0.2,-0.2,0.4,0.8,4.7,8.2,0
5,3555,-0.2,0,-0.1,0.6,4.8,8.3,0
5,3636,0,0.2,-1.4,0.2,4.3,8.6,0
5,3732,0.4,-0.2,0.2,0.7,4.5,8.8,0
5,3823,0.1,0,-0.2,0.6,4.7,8.7,0
5,3910,0.1,0.1,0.3,0.5,4.8,8.9,0
5,4022,0.2,0,0.1,0.8,4.8,8.3,0
5,4107,-0.6,0.5,0.9,0.4,5.1,8.9,0
5,4191,-0.2,-0.2,0.3,0.5,4.7,8.1,0
5,4284,-0.2,0,0.6,0.4,4.9,9.1,0
5,4376,0.2,-0.2,-0.1,0.7,4.6,8.3,0
5,4461,-0.3,0.3,-1.1,-0.8,4.4,9.3,0
5,4552,0.4,-0.2,-0.9,0.4,4.4,8.3,0
5,4637,-0.1,0,-0.9,0.5,4.7,7.4,0
5,4729,0,0,1.6,0.6,4.5,9.8,0
5,4816,0,-0.1,-0.8,0.8,4.4,7.3,0
5,4904,0.2,0.3,-0.1,0.9,4.5,8.2,0
5,4993,0,0.1,-0.4,0.6,4.7,7.7,0
6,25,0.4,0.1,0.6,1,4.2,9,0
6,109,0.4,0.3,0.5,0.9,4.6,8.6,0
6,194,-0.2,-0.1,-0.1,0,4.8,9.1,0
6,281,0,0,0.2,0.2,4.7,8.9,0
6,373,0.3,-0.2,-0.4,0.5,4.6,8.1,0
6,463,-1.8,-0.1,-0.2,-1.2,5.2,9.6,0
6,557,0.5,-0.5,0.3,0.3,4.3,9.1,0
6,643,0.3,0.2,0.6,0.9,5,9.1,0
6,736,0.3,0,0,0.5,4.9,8,0
6,821,-0.2,0.1,0,0.1,5,8.5,0
6,912,-0.2,0,0.6,0,4.9,8.6,0
6,1007,0.2,-0.1,-0.1,0.4,4.8,7.9,0
6,1110,0,0.3,0.3,0.9,5.3,8.3,0
6,1201,-0.1,-0.2,-2,1.1,5.7,7.5,0
6,1291,0.8,-0.3,-0.6,1,5.3,7.2,0
6,1381,-1,0.6,2.5,-0.9,6,10,0
6,1466,-0.6,-0.1,0.7,0.1,5.3,8.4,0
6,1559,0.4,-0.1,-0.4,1.5,5.4,8.4,0
6,1661,0,-0.3,-0.7,0.2,5.5,8.6,0
6,1746,0.2,0,-0.5,1.1,5.3,7.5,0
6,1830,-0.3,0.1,1,0.7,5.3,9.2,0
6,1919,0,-0.2,-0.2,0.7,5,8.2,0
6,2017,-0.1,0,0.4,0.7,5,8.7,0
6,2108,-0.1,0,0,0.6,5,8.5,0
6,2193,0,0,0,0.6,5.1,8.3,0
6,2278,0,0,0.1,0.7,5,8.4,0
6,2368,0,0,-0.1,0.5,5.1,8.4,0
6,2455,0,0,0,0.5,5.1,8.3,0
6,2540,0,0,0.2,0.6,5,8.5,0
6,2624,0,0,-0.1,0.5,5.1,8.2,0
6,2712,-0.2,0,0.1,0.4,4.9,8.3,0
6,2799,0,0,0.2,0.5,4.9,8.4,0
6,2889,0,0,0.5,0.6,4.8,8.9,0
6,2972,0,0,0.3,0.6,4.8,8.5,0
6,3067,0.1,0,1.1,0.2,4.8,9.4,0
6,3151,0.1,0,0.1,0.2,4.8,8.8,0
6,3237,0.3,-0.1,-0.2,0.6,5,8.6,0
6,3330,-0.1,0,0,0.4,4.9,8.7,0
6,3415,-0.1,0,-0.1,0.3,4.9,8.4,0
6,3500,0,0,0.1,0.3,4.9,8.5,0
6,3585,0,0,0.2,0.3,4.9,8.8,0
6,3674,0,0,0,0.2,4.9,8.6,0
6,3759,-0.2,0.4,0.2,0.1,5.4,8.9,0
6,3843,0.4,0,-0.4,0.6,5,8.3,0
6,3928,0.5,-0.5,0.7,0.7,4.5,8.8,0
6,4018,0.1,-1.1,0.4,-0.9,4.8,9.2,0
6,4112,-1,-1.6,-1.1,-1.4,4,7.6,0
6,4200,-0.9,0.4,0.4,-0.9,6.1,6.8,0
6,4292,0.6,0.6,-0.7,0.2,6.2,8,0
6,4378,0.2,0.8,-0.1,0.6,6.3,8.1,0
6,4467,-0.2,0.8,0.9,0.4,6.5,8.5,0
6,4552,-0.2,0.5,1.5,0.1,6.4,9.1,0
6,4637,-0.3,0.3,0.9,-0.4,6.3,8.5,0
6,4725,-0.2,0.4,0.8,-1.1,7.1,8.7,0
6,4813,0.1,0.1,-0.7,-0.4,7.7,5.9,0
6,4898,0.1,0.2,-2.4,-0.1,7.9,2.9,0
6,4982,0.1,-0.3,-3,-0.1,8.2,1.4,0
7,0,-0.2,0,0.2,0.2,5.2,8.3,0
7,83,-0.1,0,-0.1,0,5.1,8.2,0
7,176,-0.1,0,-0.2,0.1,5.2,8.2,0
7,263,-0.2,-0.1,-0.3,0,5.1,8.1,0
7,355,0.7,0.2,0.3,0.9,5.3,8.4,0
7,439,0.7,-0.3,0.2,1.1,4.9,8.6,0
7,531,-0.1,0,0,0.3,5.2,8.4,0
7,616,-0.2,0.2,0,0,5.4,8.2,0
7,700,-0.3,0.1,0,0,5.3,8.1,0
7,785,-0.1,-0.1,0,0.1,5.1,8.4,0
7,875,0,0.2,-0.2,0.2,5.2,8.2,0
7,960,0.1,-0.1,0,0.4,5,8.8,0
7,1049,0.2,-0.1,-0.2,0.4,5,8.5,0
7,1139,0.1,0,-0.1,0.3,5,8.2,0
7,1223,0.3,0.2,1.4,0.4,4.9,9.3,0
7,1308,0.2,-0.1,-0.6,0.4,5.2,8.2,0
7,1397,-0.1,0.1,-0.4,-0.2,5.5,8.1,0
7,1492,0.3,-0.4,-0.7,-1,5,7,0
7,1578,0.1,0.1,-0.3,0.3,5.1,7.4,0
7,1664,-0.2,0.2,0.8,-0.8,5.5,8.7,0
7,1764,0.3,-0.3,-0.4,0.1,5.2,7.4,0
7,1851,-0.3,0.4,-2.5,-1,5.2,8.5,0
7,1936,0,0.4,-0.9,0.6,5.1,7.3,0
7,2020,-0.2,-0.1,-0.2,0,5.1,7.9,0
7,2107,0,0.1,0.4,-0.1,5.2,8.6,0
7,2198,-0.1,0.2,0.3,-0.2,5.4,8.4,0
7,2282,0.5,-0.2,-0.4,0.7,5.1,7.8,0
7,2378,-0.4,0.6,1.5,0.1,5.7,8.3,0
7,2469,-0.1,-0.3,0,-0.2,5.4,7,0
7,2559,-0.4,-0.6,-1.2,0.1,5.2,6.9,0
7,2652,-0.2,0.5,1.9,-0.2,5.9,9.1,0
7,2743,0.3,-0.4,0.4,0.2,5.2,8,0
7,2828,-0.2,0.1,-0.3,-0.3,5.6,7.9,0
7,2914,0.2,-0.1,0.3,0.2,5.2,8.5,0
7,3003,0.2,-0.1,-0.3,0.3,5.3,7.7,0
7,3086,0.1,0.1,-0.3,0.2,5.3,8.1,0
7,3177,-0.1,0.1,0.2,0.1,5.5,8.2,0
7,3260,0.5,-0.2,-0.7,-0.5,5.3,6.7,0
7,3351,0.1,0.1,0.1,0.6,5.1,7.5,0
7,3439,-0.4,0.1,-0.3,0.4,5.5,8.3,0
7,3524,0.3,-0.3,-0.7,0.4,5,7.7,0
7,3610,-0.3,0.5,2,-0.5,5.7,9.6,0
7,3709,0.3,-0.3,0.4,0.3,5,8.5,0
7,3802,-0.2,0.1,0,0,5.3,8.5,0
7,3896,-0.1,0,0.3,0.2,5.2,8.2,0
7,3981,-0.1,0,-0.5,0.1,5.2,8.2,0
7,4065,0,0,0.2,0.2,5.3,8.4,0
7,4149,0,0,-0.4,0.2,5.2,7.4,0
7,4251,0.2,0,0.3,0.5,4.9,9.5,0
7,4336,0.2,0.2,-0.1,-0.4,5.5,7.2,0
7,4429,-0.1,-0.1,0.6,0,5.3,8.8,0
7,4520,0,0,0,0,5.3,8.6,0
7,4603,0,-0.1,-0.1,0.2,5.2,8,0
7,4688,-0.1,0,0.4,0,5.2,8.8,0
7,4780,0,-0.1,-0.2,0.1,5.2,8.1,0
7,4865,0,0,0,0.1,5.2,8.3,0
7,4951,0,0,-0.2,0.2,5.1,8.4,0
8,32,0,0.1,-0.3,-0.1,5.1,8.5,0
8,122,0,0,-0.1,0,5.1,8.2,0
8,206,0.3,0.1,0.6,0.2,5,8.9,0
8,291,0.1,0,0.2,0.1,5,8.5,0
8,379,0,0,-0.3,0.1,5,7.8,0
8,460,0,0.1,0.4,0.1,5.1,8.5,0
8,559,0,0,-0.2,0.2,5,8.5,0
8,650,0.1,-0.1,-0.1,0.3,4.9,8.2,0
8,735,-0.1,0.1,0.1,0,5.1,8.5,0
8,820,0.1,0,-0.2,0.3,5,8.2,0
8,904,0,0,0,0.2,5,8.4,0
8,993,0,-0.1,0.1,0.1,4.9,9,0
8,1079,0.1,0,0.2,0.3,4.9,8.2,0
8,1164,0.1,0.1,0.1,0.4,5,8.6,0
8,1249,-0.1,0,-0.1,0.3,5,8.4,0
8,1333,0,-0.1,0.1,0.4,5,8.5,0
8,1427,0,-0.1,0,0.2,5,8.1,0
8,1513,-0.2,0.1,0.2,0,5.1,8.1,0
8,1598,-0.1,0.1,0.2,0.2,5.1,8.3,0
8,1682,0.1,0,-0.1,0.3,5.1,8.1,0
8,1767,0,0,0.2,0.2,5.2,8.4,0
8,1856,0,-0.1,-0.1,0.2,5.1,8.2,0
8,1941,0,0,0,0.3,5.1,8.4,0
8,2030,-0.1,0,-0.1,0.2,5.1,8.2,0
8,2119,0,0,0.2,0.2,5.2,8.3,0
8,2204,-0.1,0,0.1,0.2,5.1,8.2,0
8,2289,0.1,0,0,0.3,5.1,8.3,0
8,2374,0,0,0.1,0.4,5.1,8.3,0
8,2460,0,0.1,0,0.3,5.1,8.2,0
8,2544,0.1,0,0.1,0.3,5.1,8.5,0
8,2633,-0.1,0.1,-0.1,0.3,5.2,8.3,0
8,2722,0,0,0.1,0.5,5.1,8.3,0
8,2809,0,0,0.2,0.3,5.1,8.4,0
8,2899,0,0,0,0.4,5,8.3,0
8,2983,0.2,0,-0.1,0.8,5,8.3,0
8,3068,0,0,0,0.6,5.1,8.4,0
8,3153,0,0.1,0,0.4,5.1,8.4,0
8,3237,0.1,0,0.1,0.5,5.1,8.3,0
8,3326,-0.1,0,0,0.4,5.1,8.4,0
8,3410,0,0,-0.1,0.3,5.2,8.4,0
8,3499,-0.2,-0.1,-0.4,0.3,5.2,7.2,0
8,3582,-0.1,0,0,0.2,5.2,8.3,0
8,3670,0.4,-0.1,-0.5,0.6,4.9,7.6,0
8,3759,-0.8,0.6,1.5,0.2,5.4,9.2,0
8,3844,0.3,-0.2,0.1,0.2,5.2,8,0
8,3928,-0.1,0,-0.3,0.3,5.2,8.4,0
8,4022,0,0.1,0.2,0.3,5.1,8.2,0
8,4107,0,0.1,-0.2,0.2,5.1,8.3,0
8,4200,0,0,-0.1,0.5,4.9,8.4,0
8,4284,-0.1,0.1,0.2,0.2,5,8.6,0
8,4367,-0.3,0.1,0.2,0.6,4.7,8.8,0
8,4453,-0.2,-0.1,-1.2,0.7,4.7,8.6,0
8,4543,0.3,-0.1,0.1,0.7,4.8,8.8,0
8,4622,-0.2,0.1,-0.8,0.2,5.1,7.7,0
8,4707,-0.2,0,0,0.3,5.1,8.3,0
8,4809,0.2,0,-0.1,0.5,5.1,8.6,0
8,4898,0.2,0,0.2,0.4,5,8.9,0
8,4996,-0.2,0.1,0.1,0.2,5.1,8.4,0
9,55,0,-0.1,-0.4,0.1,5,8.2,0
9,140,0,0,-0.1,0.2,5,8.3,0
9,229,0,0,-0.1,0.2,4.9,8.3,0
9,315,0,0,0,0.4,5,8.6,0
9,410,0.1,0,0.2,0.2,5,8.7,0
9,496,0.1,-0.1,0,0.3,5,8.3,0
9,593,-0.1,0,-0.5,0.8,4.9,8.5,0
9,697,0.2,0,0,0.4,4.9,8.5,0
9,795,0.2,0,-1.2,-0.3,4.9,9.1,0
9,880,0.3,-0.2,0.5,0.2,4.7,9.1,0
9,972,-0.4,-0.6,-0.7,0.1,5.1,8.9,0
9,1083,0.1,0,0.5,0.1,4.9,8.7,0
9,1177,-0.2,-0.1,-0.3,0.1,4.8,7.9,0
9,1261,-0.1,0.1,0.6,0.1,4.9,8.9,0
9,1432,0,0,0.2,0.1,4.8,8.8,0
9,1517,0,0,-0.3,0.2,4.9,8.3,0
9,1604,0,-0.1,-0.2,0.3,4.7,8.1,0
9,1701,0,0.1,0.3,0.3,4.8,8.7,0
9,1792,0.1,0.1,0.3,0.4,4.9,8.5,0
9,1878,0.1,-0.1,-0.6,0.4,4.8,7.5,0
9,1962,-0.2,0,1.5,0,5.3,9.6,0
9,2059,0.3,-0.1,0.4,0.3,4.8,8.7,0
9,2143,0,-0.1,-0.3,0.2,4.9,8.4,0
9,2232,0,0.1,0.3,0.1,5,8.9,0
9,2317,0.1,-0.1,-0.3,0.4,4.9,8.2,0
9,2403,0.1,0,0,0.3,4.9,8.6,0
9,2488,-0.1,0,0.2,0.3,4.9,8.4,0
9,2573,0,0,0.1,0.4,4.9,8.5,0
9,2663,-0.1,0,0,0.2,4.9,8.5,0
9,2747,-0.2,0,0,0.2,4.9,8.3,0
9,2832,-0.1,0,-0.6,0.7,4.7,8.9,0
9,2924,0.3,-0.3,-0.2,1.3,4.1,8.6,0
9,3012,0.3,0,-1,0.8,5,6.3,0
9,3098,-0.1,0,0.8,0.2,4.8,8.7,0
9,3182,-0.4,0.1,0.5,0.1,4.7,9.1,0
9,3277,-0.4,0.2,-0.3,0,5,8.2,0
9,3361,-0.4,0,0.1,-0.1,5,8.8,0
9,3446,0.2,-0.1,-0.5,0.6,4.8,8.3,0
9,3532,0.1,0,-0.1,0.7,4.9,8.2,0
9,3620,-0.1,0,0.4,0.6,4.8,8.6,0
9,3705,0.1,-0.1,-0.3,0.3,4.9,8.6,0
9,3789,-0.1,0,0.2,0.3,4.9,8.5,0
9,3876,-0.4,0.2,-0.2,0,5.1,8.2,0
9,3960,0.3,-0.3,0,0.8,4.7,8.4,0
9,4050,0.3,0.1,-0.4,0.7,5,8.4,0
9,4136,0,-0.1,0,0.7,4.9,8.1,0
9,4226,-0.2,0.1,0.2,0.6,5,8.3,0
9,4320,-0.2,0,0.2,-0.1,5,9.2,0
9,4405,-0.1,0,0,0.2,4.8,7.9,0
9,4500,-0.2,0.2,-0.1,0,5,8.6,0
9,4586,-0.1,0,0,0.3,4.9,8.4,0
9,4670,-0.1,0.1,0.1,0.4,4.9,8.7,0
9,4761,0.3,-0.1,-0.3,0.9,4.9,8.2,0
9,4847,0.1,0.2,0.4,0.4,5,9,0
9,4936,0.1,0,0.6,0.3,4.8,8.7,0
10,74,-0.1,0.1,0,0,5.2,8.1,0
10,163,0,0.1,-0.1,0,5.2,8,0
10,248,-0.2,0.1,-0.9,-0.1,5.3,8.1,0
10,333,0,0,0.3,0.1,5.2,8.3,0
10,419,0.1,0,-0.2,0.1,5.1,8.4,0
10,506,0,0,0,0.1,5.1,8.5,0
10,595,0.1,-0.1,-0.2,0.2,5,8.1,0
10,681,0.1,0,0.1,0.2,5,8.8,0
10,765,-0.2,0.2,-0.1,-0.1,5.3,7.8,0
10,850,-0.1,0.1,-1,0.2,5.3,7.7,0
10,947,0.2,-0.2,0.3,0.2,5.1,8.8,0
10,1038,-0.1,0.1,0.2,0,5.3,8.2,0
10,1126,0.1,-0.1,-0.2,0.2,5.1,8.2,0
10,1211,0.1,0,0.3,0.1,5.2,8.6,0
10,1298,-0.1,0.1,-0.2,0,5.2,8.1,0
10,1384,0,-0.1,-0.1,0,5.1,8.2,0
10,1469,0,0,0,0,5.2,8.4,0
10,1554,0.2,-0.1,0.1,0.2,5.1,8.4,0
10,1638,-0.1,0,-0.1,0,5.2,8.3,0
10,1724,-0.1,0.1,0.2,-0.1,5.2,8.4,0
10,1809,0,0,0,0.1,5.2,8.3,0
10,1897,0,0,0.1,0,5.2,8.5,0
10,1982,-0.1,0,-1.4,-0.2,5.2,8.1,0
10,2067,0,-0.1,0.5,0.2,5,8.4,0
10,2151,-0.1,0,0,0,5.2,8.4,0
10,2236,-0.2,-0.1,0,0.1,5.3,8.7,0
10,2331,0.2,-0.1,0.2,0.3,5.1,8.5,0
10,2417,-0.1,0,-0.4,-0.2,5.3,8.1,0
10,2503,0,0,-0.2,0,5.1,8.4,0
10,2591,0.1,-0.1,0.1,0.2,5.1,8.4,0
10,2675,0.1,-0.1,0.2,0,5,8.5,0
10,2760,0.1,0,-0.4,-0.1,5.1,8.2,0
10,2845,0,0,0.6,0.2,5,9.3,0
10,2937,-0.1,-0.2,-0.5,0,5,7.5,0
10,3025,-0.3,0.1,0,-0.3,5.3,8.6,0
10,3130,-0.2,0.1,0.4,-0.1,5.2,8.3,0
10,3222,0.3,-0.2,0.1,0.4,4.9,8.6,0
10,3307,0.1,-0.1,0,0.2,5,8.1,0
10,3392,0,-0.1,-0.3,0.3,5,8.2,0
10,3480,-0.3,0.3,1,-0.2,5.3,9.5,0
10,3566,0,0.1,-0.1,0.1,5,7.9,0
10,3650,0.2,-0.2,0,0.2,4.9,8.7,0
10,3735,-0.1,-0.1,-0.1,0,5,7.9,0
10,3820,-0.6,0.2,-1.9,-0.6,5.5,6.5,0
10,3907,-0.1,0.1,2.1,0.1,5.1,10.1,0
10,4005,0.3,-0.2,-0.6,0.5,4.9,8,0
10,4094,-0.2,0,-0.2,-0.1,5.1,9,0
10,4179,0.1,0,0.1,0.4,5,8.1,0
10,4263,0.3,-0.2,0.1,0.3,4.8,8.9,0
10,4350,0,0,-0.1,0,5.2,7.5,0
10,4437,-0.4,0,-0.9,-0.3,5.2,7.9,0
10,4521,0.1,0,0.8,0.3,4.9,9,0
10,4607,0.1,-0.2,-0.6,0.3,4.9,7.9,0
10,4694,0,0,1,0.3,4.9,10.6,0
10,4776,0.3,-0.1,-1.2,0.3,5,7,0
10,4861,-0.1,-0.1,0.1,0,5.1,8.5,0
10,4952,-0.1,0.2,0.1,0,5.2,8.4,0
11,36,0,-0.1,-0.1,0.1,5.1,8.3,0
11,120,0,0,0,0,5.1,8.3,0
11,210,0,0.1,0.2,-0.1,5.2,8.6,0
11,300,0.1,0,-0.1,0,5.1,8.3,0
11,388,0.1,-0.1,0.1,0.2,5,9,0
11,472,-0.2,0.1,-0.3,-0.1,5.2,8,0
11,558,0,0,-0.1,0,5,8.2,0
11,648,0,0,-0.1,0.1,5,9.1,0
11,733,0.2,-0.1,0.1,0,4.9,7.8,0
11,819,0.1,0,-0.4,0.1,5.1,8.1,0
11,903,0,0.1,-0.6,0,5,8.5,0
11,996,0.4,-0.1,1.3,0.5,4.8,9.7,0
11,1083,0,0.1,-1.4,-0.1,5.2,6.4,0
11,1167,-0.2,0.1,0.6,0,5.1,9.3,0
11,1252,0,0,0.5,0.2,4.9,8.7,0
11,1342,0.2,-0.1,-0.8,0.3,4.9,8.1,0
11,1426,0.1,0,1.7,0.3,4.8,10.3,0
11,1510,-0.1,0,-1.2,0,5,7.4,0
11,1601,-0.4,0.1,0.4,-0.7,5.4,6.5,0
11,1689,0,0.1,0.6,0,5,8.5,0
11,1774,0.4,-0.1,1.1,0.5,4.8,9.4,0
11,1860,-0.1,-0.1,-1.6,0.2,5.1,6.7,0
11,1945,-0.2,0,0.6,0,5,9.2,0
11,2032,0.2,-0.1,1.1,0.3,4.8,9.1,0
11,2120,-0.2,0,-1.4,-0.2,5.2,6.8,0
11,2204,-0.3,0.2,0.5,-0.3,5.2,9,0
11,2292,0.3,-0.2,0.3,0.3,4.7,8.7,0
11,2376,0.2,-0.4,0,0,4.7,7.6,0
11,2466,-0.2,0.1,-0.3,-0.1,5.1,8.3,0
11,2553,0,0,0.8,0,4.9,9.1,0
11,2642,0,0,-0.5,0,5,7.7,0
11,2735,-0.1,-0.1,0.2,0,5,8.7,0
11,2820,0.2,-0.1,-0.2,0.3,4.9,8.2,0
11,2911,0.3,-0.1,1.7,0.3,4.7,9.8,0
11,2996,-0.3,0.1,-1.2,-0.4,5.3,7.2,0
11,3081,-0.1,0,0.2,-0.1,5.2,8.6,0
11,3166,-0.1,0.1,0.2,0,5.1,8.4,0
11,3251,0,-0.1,-0.2,0,5.1,8.2,0
11,3340,-0.1,0,0.3,-0.1,5.1,8.6,0
11,3425,0,0,0,0,5.1,8.3,0
11,3510,0,0,-0.2,-0.1,5.2,8.1,0
11,3594,0,0,0.1,0.1,5.1,8.4,0
11,3678,0,0,0,0,5.1,8.3,0
11,3764,0,0,0.4,-0.1,5.2,8.4,0
11,3855,0,-0.1,0,0,5.1,8.4,0
11,3941,0,0,0.1,0,5.1,8.3,0
11,4027,0,-0.1,-0.1,0,5.1,8.3,0
11,4122,0,0,-0.1,-0.1,5.2,8.2,0
11,4207,0.1,0,0.1,0.1,5,8.4,0
11,4292,0,0,0,-0.1,5.1,8.4,0
11,4381,0,0,-0.1,0,5.1,8.4,0
11,4474,-0.1,0.2,0,-0.3,5.3,8.5,0
11,4565,0.2,-0.1,0.1,0.1,4.9,8.6,0
11,4650,0,0,-0.1,0,5.1,8.5,0
11,4735,0.1,0,0.1,0,5,8.2,0
11,4820,0,0,0.2,-0.2,5.1,8.4,0
11,4911,0,0.1,0.2,-0.2,5.1,8.1,0
11,4995,0.1,0,-0.2,-0.1,5,8.3,0
12,83,0.3,-0.2,1.1,0.1,4.8,9.1,0
12,168,-0.2,0,-0.9,-0.3,5.2,7.6,0
12,257,-0.2,0.1,0.1,-0.6,5.4,7.4,0
12,342,-0.1,0.1,0.2,-0.2,5.1,8.4,0
12,427,0,0,-0.1,-0.1,5,8.5,0
12,512,0,0,0.3,-0.2,5.1,8.5,0
12,597,0.1,-0.1,-0.4,0.1,4.9,8.1,0
12,682,0.1,-0.1,1.4,0.1,4.9,10.9,0
12,782,0,0,-1.6,0.3,5.1,6.7,0
12,871,0.1,-0.2,0.1,0.2,5,8.5,0
12,955,-0.3,0.2,0.7,-0.3,5.3,8.8,0
12,1039,0,-0.2,-0.5,0,4.9,7.6,0
12,1131,0.2,0,0.8,0.2,5.1,9.2,0
12,1218,-0.1,-0.1,-0.4,0,5,7.9,0
12,1302,-0.1,0,0.1,-0.2,5.1,8.4,0
12,1387,-0.1,0,0.3,-0.2,5.2,8.9,0
12,1476,0.4,-0.1,-0.1,0.3,5,8.2,0
12,1563,-0.1,0,-0.2,-0.1,5,8.1,0
12,1647,-0.3,0.1,-0.2,-0.7,5.2,8.3,0
12,1740,0.5,-0.1,0.3,0.5,4.8,8.7,0
12,1826,0.4,-0.2,0,0.5,4.7,8.6,0
12,1913,0,0.1,-0.2,0.2,5,8.9,0
12,2006,0,0,-0.6,0.3,5,7.2,0
12,2091,0.1,-0.2,-0.7,0.2,5,7.8,0
12,2177,-0.3,0.2,0.5,-0.4,5.3,9,0
12,2261,-0.4,-0.1,-1.8,0,5.1,7.8,0
12,2347,0,0,-0.1,0,5.1,8.3,0
12,2431,0,0.1,0.2,-0.1,5,8.6,0
12,2525,0,0.1,1,0,4.8,9.8,0
12,2611,0.2,-0.1,-0.8,0.1,5,7.4,0
12,2694,0.3,-0.2,-0.1,0.2,4.9,8.6,0
12,2780,0,0,0.5,0,5.1,8.8,0
12,2870,0,0,-0.2,0.1,5.1,8.2,0
12,2955,0.1,0,0,0.2,5,8.5,0
12,3042,-0.2,0.2,-0.2,-0.1,5.1,8.2,0
12,3132,0.2,-0.1,0.9,0.4,4.6,10,0
12,3219,-0.1,0,-1.4,0.1,5.1,7.1,0
12,3306,-0.2,0.1,-0.1,-0.2,5.2,8.6,0
12,3390,-0.1,0.1,0.7,0,5,9,0
12,3479,0,0,-0.5,0,4.9,7.9,0
12,3564,0.1,-0.1,0.2,0,4.8,8.8,0
12,3649,0.4,-0.2,0.8,0.1,4.8,8.5,0
12,3733,-0.1,0,-0.6,-0.2,5,8,0
12,3822,0.1,0,1.4,0.2,4.8,10,0
12,3913,-0.2,-0.1,-1,-0.1,5.1,7.2,0
12,3998,-0.3,0.1,0.1,-0.3,5.2,8.7,0
12,4083,0,0,0.4,0.1,5,8.6,0
12,4173,0.1,-0.1,-0.2,0.3,5.1,7.1,0
12,4257,-0.1,0,0.2,0,5,8.6,0
12,4342,-0.1,0,0.2,0.1,4.9,8.4,0
12,4432,-0.1,-0.1,-0.6,0.2,4.9,7.7,0
12,4519,0,0,0.6,0,4.9,8.9,0
12,4605,0.1,0,0.1,0.1,4.8,8.9,0
12,4696,-0.3,-0.1,-0.5,-0.1,5,7.5,0
12,4787,-0.4,-0.1,-0.5,0,5.2,8.2,0
12,4872,0.4,-0.1,0.6,0.3,4.7,8.6,0
12,4958,0,-0.1,-0.5,0,4.9,8,0
13,54,-0.1,0.1,0.5,0,4.9,9,0
13,139,0.2,-0.1,0,0,4.9,7.7,0
13,223,-0.4,0.2,-0.4,-0.3,5.1,8.2,0
13,316,0.4,-0.2,0.3,0,4.6,8.8,0
13,401,0.4,-0.3,1.6,0.6,4.5,9.8,0
13,490,0,0,-1.5,0,5,7.2,0
13,579,-0.4,0.1,0.5,-0.4,5.1,9.1,0
13,669,0,0,0.2,0.2,4.9,8.4,0
13,755,0,0,-0.2,0.2,5,8.5,0
13,841,-0.1,0,0.4,-0.2,5,9.3,0
13,925,0.2,-0.1,0,0.1,4.9,8.1,0
13,1009,0,0,0,0,4.9,8.6,0
13,1094,-0.1,0.1,0,-0.1,5,8.1,0
13,1194,0.3,0,0.9,0.3,4.8,8.7,0
13,1278,-0.1,0.1,-0.4,-0.2,5.2,8.2,0
13,1363,-0.5,0.1,0,-0.1,5.1,8.8,0
13,1455,0.4,-0.2,-0.2,0.7,4.7,8.5,0
13,1540,0.2,-0.4,1.6,0.4,4.8,9.6,0
13,1625,-0.2,0.2,-1.8,-0.2,5.2,6.6,0
13,1710,-0.3,0,0.4,-0.4,5.1,9.3,0
13,1800,-0.2,0.2,-0.3,0,5,8.1,0
13,1887,0.4,-0.3,0,0.5,4.6,8.7,0
13,1978,0,-0.1,0,-0.2,4.9,7.9,0
13,2064,-0.4,0.2,-0.1,-0.3,5.2,8.1,0
13,2149,-0.7,0.4,0.7,-0.4,5.3,9,0
13,2237,0.1,-0.1,-0.3,0.2,4.8,8.1,0
13,2322,0,-0.2,1.5,0.5,4.6,10.2,0
13,2413,0.1,-0.1,-1.5,0,5,7.1,0
13,2497,0.1,-0.1,0,0.2,4.9,8.4,0
13,2583,-0.2,0,0.4,0.2,4.9,8.7,0
13,2667,0,0,-0.1,0.4,4.9,8.3,0
13,2752,-0.3,0.1,0.2,0,5.2,8.4,0
13,2849,-0.1,0,-0.5,0.2,5.1,8.1,0
13,2933,-0.1,0.1,0.3,0.2,5.1,8.6,0
13,3020,0,0,-0.2,0.3,5,8.1,0
13,3106,0,-0.1,0,0.2,5,8.4,0
13,3194,-0.2,0.1,0.1,0.1,5.3,8.5,0
13,3287,0,0.4,0.4,0.3,5.7,8.3,0
13,3372,0.5,0.2,0.6,0.4,5.7,8.9,0
13,3458,0.4,0.4,0.7,0.6,5.8,8.7,0
13,3549,0.2,-0.3,0.4,1.4,5.1,8.4,0
13,3634,0.8,0.2,-0.5,2.3,5.9,7,0
13,3724,-0.2,-0.1,-0.5,0.6,5.7,6.7,0
13,3813,-1.7,-1.7,-1.4,-1,4.4,6.1,0
13,3899,-0.3,-0.6,0,1.1,5.7,7.8,0
13,3984,-0.5,0.3,-0.8,0.5,5.9,6.3,0
13,4068,1.5,-0.2,-0.2,2.9,6.3,8.5,0
13,4176,-0.4,0.1,2,0,5.2,9.1,0
13,4262,-0.5,-0.2,-0.7,0,5.1,7.9,0
13,4347,-0.1,-0.2,1.6,0.6,4.7,9.9,0
13,4432,0.6,-0.4,-0.2,1.2,4.6,8.3,0
13,4517,-0.1,0,-0.3,0.4,4.9,8.5,0
13,4604,0.1,0.1,0.1,0.4,5.1,8.8,0
13,4696,0.3,0.1,0.3,0.5,5.2,8.4,0
13,4781,0.5,-0.1,0,0.9,4.9,8.5,0
13,4870,-0.1,0,-0.2,0.3,5.1,8.2,0
13,4955,-0.3,0.4,0.8,0.1,5.4,8.7,0
14,39,0,0,-0.4,0.5,5.1,8.1,0
14,125,0,-0.3,-0.3,0.5,4.9,8.2,0
14,210,-0.1,0.1,0.5,0.1,5.2,8.7,0
14,297,-0.2,-0.1,-0.9,0,5.1,7.7,0
14,386,0.1,0.1,0.7,0.2,5.2,8.8,0
14,470,-0.1,0,-0.6,0.1,5.2,7.8,0
14,555,0.2,-0.2,0,0.3,5,8.3,0
14,648,0.1,0,0.2,0.2,5.1,8.2,0
14,732,-0.1,0.2,0.2,0,5.3,8.5,0
14,817,0,0,0,0.2,5.1,8.6,0
14,903,0,-0.1,-0.2,0.1,5.2,8.3,0
14,989,-0.2,-0.1,-0.2,-0.1,5,8.2,0
14,1078,-1.8,-0.1,1.5,-2.3,5.2,9.9,0
14,1163,-4.3,-1.4,0,-4.4,3.7,8,0
14,1247,-1.5,0.7,-1.7,-1.2,6,6.5,0
14,1332,2.2,0.3,-0.7,3.6,5.2,8,0
14,1420,3.9,-0.3,-0.9,3.9,3.9,7.5,0
14,1511,0.9,-1.1,0.1,3.1,3.6,9.3,0
14,1599,1.4,-0.6,0.8,4.8,2.7,9.2,0
14,1689,0.5,-0.4,-1.8,3.2,3.3,6.4,0
14,1786,-0.2,-0.2,0.3,2.6,2.6,9.1,0
14,1880,-1.1,0.6,0.3,1.7,3.1,9.6,0
14,1968,-0.8,0,0.8,2.6,2.2,9.9,0
14,2060,-0.1,0.1,0.1,3.5,1.8,8.4,0
14,2146,-0.9,0.2,1.4,3.1,1.7,10.4,0
14,2244,0,0.1,0.1,3.1,1.9,8.6,0
14,2334,-0.6,0.2,1,2.8,2.1,9.8,0
14,2419,-0.6,1,-0.1,2.5,3,8.1,0
14,2503,0.8,-0.1,0.5,4.6,2.7,9.4,0
14,2588,-0.1,0.1,0.5,3.7,2.9,8.9,0
14,2680,-0.3,-0.2,0,3.3,3.5,8.7,0
14,2769,0.2,0.4,-0.1,3.6,4,8.3,0
14,2853,0.2,-0.9,-0.5,4.1,2.7,8.3,0
14,2944,0,-0.3,1.1,4.8,3.1,9.2,0
14,3042,-1.2,-0.4,-0.9,3.1,4.1,6.7,0
14,3127,-1.3,-0.3,-1.1,2.4,4.3,6.7,0
14,3211,-1.3,0.1,-0.1,1.8,4.9,7.8,0
14,3296,-1,0.3,0.4,1.6,5.3,8.6,0
14,3380,-0.6,0.8,0,1.6,5.5,8.5,0
14,3465,-1,0.7,0.1,0.8,5.5,8.5,0
14,3554,-1,0.4,-0.5,0,5.4,7.8,0
14,3640,-0.4,0,-0.3,0.3,5.1,8.4,0
14,3726,0.4,0,0,0.6,5,8.3,0
14,3811,1,-0.4,0.6,1.2,4.4,9.2,0
14,3902,0.2,-0.1,0,0.6,4.8,8.5,0
14,3989,0.6,0.4,0.7,0.8,5.3,9.5,0
14,4074,1.5,0.8,1,1.5,5.8,8.8,0
14,4159,-0.1,-0.2,-1.1,0,5.3,7.4,0
14,4249,-1.6,-1,-0.4,-1.5,4.5,7.1,0
14,4334,-0.1,-0.9,-0.8,0,5.1,6.6,0
14,4422,0.4,-0.3,-0.2,1.2,5.4,7.9,0
14,4507,2,0.6,0.8,1.8,6.3,8.6,0
14,4596,0,-0.5,2.3,0,4.7,9.4,0
14,4684,0.6,0.2,0.4,0.5,5.8,8.5,0
14,4768,0.5,0.1,0.6,0.8,5.5,8.5,0
14,4854,0.8,-0.1,-0.5,0.9,5.7,7.1,0
14,4943,0.4,0.1,-0.7,0.4,6.1,7.2,0
15,36,-0.1,0.3,0.7,0,6.3,8.3,0
15,138,-0.2,0.1,0,0,6.3,7.7,0
15,226,0.1,0,0.4,0.2,6.1,8.1,0
15,311,0.1,-0.1,-0.4,0.4,6,7.4,0
15,396,0,0,-0.3,0.4,6.1,7.5,0
15,482,0.1,-0.1,0.4,0.3,6,7.4,0
15,565,0,0.1,0.4,0.2,6.1,8.4,0
15,657,0.2,0.1,1.3,0.6,5.9,8.6,0
15,742,-0.2,0,-0.5,0.2,6.1,7.3,0
15,827,-0.3,-0.3,-2.1,0.1,6.1,6.8,0
15,925,0.4,-0.1,1.3,0.9,5.7,9.2,0
15,1021,0.1,-0.2,-0.5,0.6,5.8,7.1,0
15,1110,-0.2,0.1,-0.3,0,6.1,7.8,0
15,1210,0.2,-0.1,0,0.6,5.7,7.6,0
15,1300,0.1,0,0.4,0.6,5.8,8.5,0
15,1385,0.1,0,0,0.7,5.6,7.7,0
15,1469,0,-0.1,0.1,0.3,5.6,8.2,0
15,1555,0,0.1,0.6,0.2,5.8,8.7,0
15,1641,-0.1,0.3,-3.3,0,5.3,3.9,0
15,1737,0,-0.1,0.2,0.6,5.7,8.2,0
15,1826,0,-0.1,0.2,0.5,5.8,7.9,0
15,1911,-0.1,0,0.2,0.3,5.6,8.8,0
15,1998,0.3,-0.1,0.6,0.3,5.7,6.9,0
15,2084,-0.1,0,0.7,0.5,5.7,8.9,0
15,2168,0.2,0.1,-0.1,1,5.8,7.9,0
15,2259,0.4,0.2,2.4,0.7,5.6,9.1,0
15,2344,0.1,-0.1,-0.9,0.6,5.7,7.1,0
15,2428,-0.3,0,-0.3,0.2,5.8,7.9,0
15,2513,0,0,0.4,0.4,5.7,8.2,0
15,2599,0.2,-0.2,-0.3,0.7,5.4,7.5,0
15,2687,-0.1,0.1,0.2,0.7,5.6,8.6,0
15,2771,-0.1,-0.1,0.3,0.6,5.3,8.1,0
15,2858,0.1,-0.1,0.2,0.7,5.4,8.1,0
15,2947,0,0.1,-0.1,0.6,5.5,7.9,0
15,3041,0,0,0.1,0.8,5.3,8.4,0
15,3132,0.1,-0.2,0.2,0.5,5.1,8.1,0
15,3218,0.3,0.1,0.2,0.8,5.4,8.2,0
15,3303,0,0,-0.2,0.7,5.3,8.2,0
15,3387,-0.2,0.1,0,0.5,5.4,8,0
15,3471,0,0.1,0.1,0.6,5.4,8,0
15,3562,0.2,-0.1,0.3,0.8,5.2,8.7,0
15,3647,0.1,-0.1,0.4,0.4,5.6,5.6,0
15,3740,-0.4,-0.1,1.4,0.4,5.2,8.4,0
15,3828,0.3,-0.2,-0.6,1.3,5.4,7.7,0
15,3912,0.2,0,0.7,1,5.2,9.2,0
15,4002,0,-0.1,-0.8,0.8,5.3,7.5,0
15,4100,0,0,-0.7,0.5,5.2,7.7,0
15,4188,0.4,0.1,0.9,1.2,5.3,8.5,0
15,4272,0.3,-0.2,1.1,0.9,5,8.7,0
15,4358,0,-0.1,-1,0.2,5.4,7.5,0
15,4444,-0.1,0.1,-0.1,0.3,5.6,8.7,0
15,4532,-0.1,-0.2,0.2,0.3,5.1,7.1,0
15,4622,0.2,-0.2,0.5,0.4,5.2,8.9,0
15,4706,0,0.1,0.5,0.5,5.3,7.9,0
15,4791,0.2,-0.1,1.6,0.7,5.3,9.3,0
15,4879,0,0,-0.1,0.4,5.5,8,0
15,4975,-0.2,0,2.3,0,5.4,10.6,0
16,44,0.1,-0.1,0.9,0.5,5,8.4,0
16,137,-0.1,0.1,-0.5,0.5,5.3,8,0
16,222,-0.6,-0.1,-1.1,0,5.2,8.4,0
16,307,-0.1,-0.1,0.6,0.3,5,8.9,0
16,391,0.5,-0.4,0.9,1,4.7,8.7,0
16,477,-0.1,-0.2,-0.9,0.3,5.2,7.7,0
16,563,-0.4,0.3,0.4,-0.2,5.6,8.7,0
16,647,0,0.1,0.2,0.2,5.3,8.5,0
16,734,0.3,-0.2,-0.3,0.4,5.2,8,0
16,819,-0.4,-0.4,-2.3,0.2,5.5,7.2,0
16,905,-0.1,-0.1,-0.1,0.5,5.1,8.8,0
16,990,-0.1,0,0,0.4,5.2,8.1,0
16,1082,0.1,-0.1,0,0.4,5.1,8.4,0
16,1166,-0.1,0.1,0.5,0.2,5.2,9.2,0
16,1251,0.1,-0.1,0.4,0.5,4.8,9.3,0
16,1336,0,-0.1,0.3,0.2,5,8.6,0
16,1421,0.5,-0.3,-1.8,0.5,5,7.3,0
16,1510,0.5,-0.1,2.4,0.8,4.9,10.6,0
16,1598,0,-0.2,-0.5,0.4,5,7.9,0
16,1687,0.1,-0.1,-1.4,0,5.3,7.6,0
16,1777,0.4,-0.1,2,0.5,5,9.3,0
16,1864,0.3,-0.3,0.4,0.4,4.9,8.1,0
16,1950,-0.2,0,0.2,0,5.1,8.8,0
16,2034,0.1,-0.2,-1.1,0.5,5,6.8,0
16,2122,-0.1,-0.2,2,0.1,5,10.3,0
16,2209,0.1,-0.1,-0.9,0.2,5.2,7.3,0
16,2305,0,0.1,0.4,0.1,5.3,8.7,0
16,2390,0.2,-0.1,0.3,0.4,5.2,8.3,0
16,2474,-0.2,0,-0.3,0,5.4,8.1,0
16,2559,0,-0.1,-1.2,0.3,5.1,7.1,0
16,2653,0.4,-0.2,1.6,0.4,5,9.5,0
16,2738,0,0,0.7,0.2,5.1,9.1,0
16,2823,0.1,-0.3,-2.5,0.5,5.2,6.2,0
16,2912,0,0,1.9,0.4,5.1,10.9,0
16,3000,-0.1,-0.1,-0.4,0,5.2,7.5,0
16,3085,0.4,-0.3,-1.1,-0.2,4.9,4.5,0
16,3169,-0.3,0.1,2.6,0,5.3,11.1,0
16,3258,0,-0.3,-2.1,0.2,5,7.3,0
16,3344,0.1,-0.1,1.5,0.5,5,9.1,0
16,3428,-0.2,0,-0.4,0,5.4,7.8,0
16,3512,0.1,0.1,-0.1,0,5.5,9.2,0
16,3597,0.7,-0.3,1.9,1,4.9,9.8,0
16,3683,0.1,-0.3,-0.8,0.7,4.9,7.2,0
16,3767,-0.4,-0.3,-1.9,0.5,5.3,7.4,0
16,3857,0.5,-0.1,3,0.9,4.9,10.5,0
16,3954,-0.2,0.1,-3.7,0,5.4,4.5,0
16,4045,0.2,0,3,0.7,5.1,11.1,0
16,4138,0.3,-0.4,-1.3,0.8,5,6.8,0
16,4224,-0.3,-0.4,0,0,5.4,8.5,0
16,4312,-0.3,0.1,0.4,0.3,5.3,8.6,0
16,4404,-0.3,-0.2,-0.2,0.3,5.1,7.8,0
16,4492,0,0,-0.1,0.3,5.4,8.1,0
16,4576,0.2,-0.1,0.1,0.5,5.2,8.4,0
16,4666,-0.1,0,0.3,0.4,5.3,8.4,0
16,4753,0.2,-0.1,0,0.6,5.2,8.3,0
16,4838,0.1,-0.1,0.5,0.6,5.2,8.8,0
16,4925,0.2,-0.2,0.1,1,5.3,9.4,0
17,20,-0.1,-0.1,0.3,0,5.3,6.1,0
17,106,-0.1,-0.1,-0.5,0.3,5.2,8.6,0
17,194,0.4,-0.1,1.5,0.7,4.9,8.9,0
17,283,0,-0.1,-1.7,0.1,5.4,6.9,0
17,368,-0.1,-0.1,0.9,0.3,5.2,8.8,0
17,461,0.1,0,0.3,0.2,5.2,8.9,0
17,545,0.1,-0.3,-0.1,0.4,5.1,7.6,0
17,630,-0.7,-0.2,-2.5,0.5,5.2,7.7,0
17,716,0,0,1.4,0.2,5.1,8.7,0
17,804,0.1,-0.2,0.6,0.3,5.2,8.5,0
17,889,-0.2,-0.3,-3.9,-0.1,5.3,6.3,0
17,976,-0.7,0.1,1.9,-0.2,5.2,9.6,0
17,1061,-0.4,0,-4.7,-0.4,5.1,4.8,0
17,1157,-0.7,0.3,2.9,0,5.4,10.4,0
17,1242,0.7,-0.3,-0.5,0.6,5,8.2,0
17,1328,0.1,0,-1.5,0.1,5.1,5.8,0
17,1424,0,0.3,2.1,0.1,5.5,9.9,0
17,1509,0.2,-0.3,-1,0.4,5,7.3,0
17,1598,-0.3,0.2,0.5,0,5.6,8.7,0
17,1685,0,-0.1,-0.2,0.6,5.2,7.9,0
17,1771,0,-0.3,0,0.1,5.2,8.3,0
17,1856,-0.1,0,-0.1,0.2,5.3,7.9,0
17,1945,0.1,-0.1,0,0.5,5.1,8.1,0
17,2032,0,-0.1,0,0.2,5.2,8.1,0
17,2117,0,0.1,0.1,0.2,5.3,8.1,0
17,2201,0.2,-0.1,0.1,0.3,5.1,8.4,0
17,2286,0.2,-0.1,0,0.4,5.2,7.9,0
17,2374,-0.4,0.2,0.2,0,5.4,8.4,0
17,2459,-0.2,0,-0.1,0.3,5.3,8.1,0
17,2551,0.3,-0.2,-0.1,0.4,5.1,8.1,0
17,2646,0.1,0.1,0,0.2,5.3,8,0
17,2737,0,-0.1,0.1,0,5.3,8.5,0
17,2821,0.1,0,0.2,0.2,5.4,8.4,0
17,2907,0.1,-0.1,0.5,0.1,5.4,8.7,0
17,2995,-0.1,0.1,3.3,-0.2,5.6,11.3,0
17,3085,0,-0.1,-0.5,0,5.4,7.4,0
17,3170,0.1,-0.4,-0.2,0.2,5.2,8,0
17,3255,0.1,-0.1,0.4,-0.1,5.4,8.3,0
17,3339,0,0,0.1,0,5.5,7.9,0
17,3425,0.1,-0.1,0,0.2,5.3,8.4,0
17,3515,-0.1,0,0.2,0,5.4,8.1,0
17,3599,0.1,-0.1,-0.1,0.2,5.3,8.1,0
17,3684,0,-0.1,0,0.1,5.3,8,0
17,3769,0.1,0,0.2,0.1,5.3,8.4,0
17,3854,0,-0.1,-0.1,0.2,5.3,8.1,0
17,3945,0.1,0,0.2,0.4,5.2,8.3,0
17,4030,0,0,0,0,5.4,8.2,0
17,4114,-0.1,0,0.2,0.1,5.3,8.3,0
17,4199,-0.3,0.2,-3.1,0,5.1,5.1,0
17,4288,-0.1,0,2.1,0.3,5.3,9.6,0
17,4374,0.3,-0.1,-0.4,0.3,5.2,7.9,0
17,4465,0.2,0,0.8,0.3,5.5,9.7,0
17,4553,0.3,-0.1,-0.6,0.5,5,7.9,0
17,4638,0.4,-0.1,2.4,0.6,5,10.2,0
17,4723,0,-0.2,-0.6,-0.1,5.4,9.3,0
17,4808,0.2,-0.2,-1,0.6,5.2,7.9,0
17,4894,0.2,-0.2,0.9,0.2,5,8,0
17,4980,-0.1,0.2,-1,-0.5,5.5,7.9,0
18,65,0.2,0,1.4,0.3,5.2,9.3,0
18,150,0.9,-0.4,0.4,0.6,5,8.6,0
18,236,-0.5,0.1,-0.4,-0.6,5.6,7.9,0
18,324,0.3,-0.1,-0.2,0.5,5.1,7.7,0
18,408,0,0,0.6,0.1,5.4,8.8,0
18,502,-0.1,0,-0.4,0,5.4,7.9,0
18,587,-0.6,0.1,-4.1,-0.2,4.5,5.1,0
18,680,-0.4,0.1,1.8,-0.2,5.3,9.1,0
18,769,0.6,-0.3,-1,0.4,5.1,7.3,0
18,859,-0.1,-0.1,0.9,0.1,5.3,9.3,0
18,945,-0.2,0.1,-0.2,0.1,5.3,7.5,0
18,1037,0,-0.1,0.1,0.1,5.2,8.4,0
18,1124,0.1,0,0.2,0.2,5.3,8.3,0
18,1209,0,0,0,0.2,5.2,8.3,0
18,1295,-0.1,-0.1,0,0,5.2,8.2,0
18,1380,-0.1,0.1,0.1,0,5.3,8.3,0
18,1466,0.3,-0.2,0,0.5,5,8.4,0
18,1560,-0.7,-0.5,-2.5,0.2,5.4,7.9,0
18,1646,-0.1,-0.1,1.2,0,5.2,8.3,0
18,1737,-0.2,-0.4,-1.2,0,5.1,8.1,0
18,1828,0.3,0,1.9,0.5,5,9.2,0
18,1923,-0.5,-0.1,-3.6,-0.1,5.3,5.9,0
18,2012,-0.3,0.2,1.5,0.1,5.2,9.3,0
18,2099,0.6,-0.3,0.5,0.5,5,8.4,0
18,2184,-0.1,-0.1,1.9,0,5.1,10.1,0
18,2269,-0.2,0.1,-0.2,-0.3,5.4,7.8,0
18,2355,-0.2,0.2,1.4,-0.6,5.4,10.8,0
18,2444,0.7,-0.2,1.5,0.6,4.8,8.9,0
18,2528,0.5,-0.4,-1.7,0.7,4.9,8.2,0
18,2613,-0.2,0.1,1.4,0,5.4,9,0
18,2698,-0.1,-0.8,-3.9,0.2,5.2,8,0
18,2782,-0.1,-0.1,1.1,0.2,5.2,9.2,0
18,2869,0.2,-0.3,-0.8,0,5.2,7.1,0
18,2959,0,0.1,0.8,0,5.4,8.9,0
18,3044,0.2,-0.2,0.2,0.1,5.2,8.3,0
18,3132,-0.8,0.1,-6.6,-0.5,4.4,4.7,0
18,3218,-0.5,0.2,1.7,-0.2,5.2,9.2,0
18,3306,0.5,-0.2,-1.3,0.6,4.9,7.2,0
18,3391,-0.1,0,0.7,0,5.3,9.1,0
18,3475,-0.1,0.1,0.1,0,5.2,8,0
18,3561,0.1,-0.1,-0.2,0.2,5.1,8.1,0
18,3645,-0.2,0.2,0.2,-0.1,5.4,8.4,0
18,3735,0.1,0,-0.1,0.2,5.1,8.1,0
18,3823,-0.1,0,0.3,0.1,5.2,8.5,0
18,3908,-0.1,0.1,-0.1,-0.1,5.3,8.3,0
18,3993,0,-0.1,0.2,0.1,5.2,8.5,0
18,4085,-0.2,0.1,0.3,-0.1,5.6,6.8,0
18,4171,-0.2,0,0.9,-0.2,5.1,10,0
18,4257,0.2,-0.1,0.4,0.3,5,8.1,0
18,4347,-0.1,-0.1,-0.6,-0.2,5.3,8.1,0
18,4432,-0.2,0.2,0.5,0,5.5,9.5,0
18,4517,0.6,-0.3,0.5,0.5,4.9,8.4,0
18,4602,0,-0.6,-2.4,0.3,5.1,8.2,0
18,4690,0,0.1,0.7,0.1,5.3,8.6,0
18,4774,-0.4,-0.3,-3.8,0.1,5.1,6.4,0
18,4859,-0.5,0.1,2.4,-0.6,5.3,9.8,0
18,4961,0.6,-0.1,0,0.6,5.1,9.6,0
19,46,0.1,-0.1,0.4,0.2,5.4,7.3,0
19,138,-0.6,0.2,0.8,-0.3,5.4,10.2,0
19,223,-0.2,-0.3,-2.2,0.5,4.9,5.8,0
19,308,-0.6,-0.1,0.6,-0.5,5.2,8.7,0
19,395,0,0.2,-2.8,-0.1,4.9,5.2,0
19,478,-0.1,0.1,1.2,-0.1,5.2,8.6,0
19,569,0.6,-0.1,1.5,0.3,5.1,9.9,0
19,654,-0.4,-0.5,-3.3,0.2,5.2,6.2,0
19,738,-0.1,0,1.9,0.1,5.2,9.7,0
19,823,0.6,-0.4,0.3,0.5,4.8,8,0
19,908,-0.2,-0.1,-1.1,-0.2,5.4,7.6,0
19,1000,0.2,-0.1,3.1,0.6,5.3,10,0
19,1089,0.4,-0.3,-0.1,0.7,4.9,7.9,0
19,1175,0,-0.2,-0.8,-0.1,5.3,7.8,0
19,1262,-0.5,0.4,0.6,-0.3,5.4,8.5,0
19,1347,0.1,-0.2,-0.4,0.1,5,8.1,0
19,1434,0.2,0,0.2,0.2,5.2,8.6,0
19,1518,0,0,-0.2,0.1,5.1,8,0
19,1606,-0.1,0.1,0.1,0,5.3,8.7,0
19,1691,0,-0.1,0,0.5,5,8.4,0
19,1783,0.2,-0.2,-0.2,0.6,5,8.3,0
19,1873,-0.2,0.1,0.2,0.1,5.2,8.4,0
19,1958,-0.1,0,-0.1,0.2,5.1,8.4,0
19,2043,0,-0.1,0,0.1,5,8.4,0
19,2128,-0.1,0,-0.2,0,5.1,8.2,0
19,2213,-0.2,0.2,0.1,0.2,5.1,8.4,0
19,2307,0.1,-0.1,-0.3,0.4,5,8.3,0
19,2392,-0.1,0.1,0.3,0.2,5.1,8.3,0
19,2477,-0.1,0.1,0,0.3,5.1,8.3,0
19,2562,0.1,-0.1,0.2,0.3,5,8.4,0
19,2648,-0.1,0.2,0.4,0.1,5.4,8.5,0
19,2733,-0.4,0.3,-0.5,-0.2,5.5,8.1,0
19,2823,0.2,-0.2,0.1,0.5,5.1,8.7,0
19,2912,-0.3,-0.4,-2.5,1,5,10,0
19,2997,-0.3,0,0.6,0.3,5.2,8.3,0
19,3082,0.3,-0.3,-0.9,0.4,4.9,7.1,0
19,3167,-0.1,0.2,0.7,0.1,5.4,9.3,0
19,3253,-0.2,0,-0.3,0.2,5.1,7.9,0
19,3343,0.2,-0.2,0,0.3,5,8.5,0
19,3427,0,0.1,0.3,0.1,5.2,8.4,0
19,3512,-0.4,0.1,0,-0.1,5.2,8.3,0
19,3597,-0.1,0.1,0,0,5.2,8.1,0
19,3681,0,0,0,0.2,5.2,8.4,0
19,3766,-0.1,0,0.1,0.1,5.2,8.4,0
19,3857,-0.2,0,-0.1,0.2,5.1,8.1,0
19,3950,0,0,0.1,0.2,5.1,8.4,0
19,4048,0,0,-0.2,0.4,5.1,8.1,0
19,4137,-0.1,0.1,0.2,0.1,5.2,8.5,0
19,4222,-0.1,0.1,0.3,0,5.3,8.8,0
19,4307,0.1,-0.2,-0.1,0.2,5.2,8.9,0
19,4392,0.4,-0.1,0.9,0.8,5,8.8,0
19,4479,0.2,-0.2,-0.7,0.3,5.1,7.7,0
19,4569,-0.2,0.1,0.2,0,5.4,8.7,0
19,4652,-0.4,-0.5,-2.6,0.6,5.2,6.4,0
19,4738,0,-0.1,2.8,0.3,5,10.2,0
19,4823,0.3,-0.1,-0.8,0.3,5.1,7.4,0
19,4911,-0.3,0.1,0.3,0,5.4,9,0
20,1,0.3,0,-1,0.2,5.2,8.3,0
20,87,0.4,-0.1,1.2,0.9,4.9,9.5,0
20,171,0,-0.1,-0.5,0.4,5.1,7.7,0
20,262,-0.5,0,-2.9,-0.2,5.2,7.7,0
20,347,0,0,2.7,0.4,4.9,11.1,0
20,431,-0.1,-0.2,-1,0,5.3,5.7,0
20,519,0.1,0.2,1.8,0.2,5.2,11.3,0
20,606,0.3,-0.3,0.1,0.5,4.9,8.1,0
20,691,-0.1,-0.3,-1.9,0.2,5.2,7.4,0
20,776,0.4,-0.2,1.8,0.7,4.8,10,0
20,861,-0.4,0.1,-0.7,0,5.3,7.3,0
20,947,-0.6,0,-3.3,0,5,6.2,0
20,1042,0.2,-0.2,1.5,0.6,4.9,9,0
20,1126,0.5,-0.4,-2.6,1,4.7,7.8,0
20,1219,0.2,-0.1,0.9,0.5,5.1,8.7,0
20,1308,-0.1,-0.2,-0.3,-0.3,5.5,4.1,0
20,1393,-0.7,0.4,3.5,-0.5,5.4,11.6,0
20,1489,0.2,-0.2,-1.4,0.5,5,7.9,0
20,1575,0.3,-0.4,0.2,0.7,4.9,8.9,0
20,1660,-0.3,-0.1,-0.3,0,5.2,7.8,0
20,1746,-0.2,-0.2,-1.3,0.1,5.3,8.1,0
20,1831,0.2,-0.3,2.3,0.7,4.8,10.6,0
20,1916,0.6,-0.4,0.7,0.8,4.9,8.1,0
20,2001,-0.1,-0.2,-1.1,0.2,5.2,7.8,0
20,2085,-0.3,0.1,0.5,-0.2,5.4,8.7,0
20,2171,0,-0.1,0.1,0.1,5.2,8.2,0
20,2260,-0.1,-0.1,-0.2,0,5.3,8.2,0
20,2346,-0.2,-0.1,0,0,5.3,8.4,0
20,2430,-0.1,0.2,-3.6,0.3,4.9,4,0
20,2516,-0.2,0,2,-0.1,5,9.5,0
20,2607,-0.1,0,-0.8,0.3,5.2,7.4,0
20,2694,-0.1,0,0.3,0.2,5.2,8.7,0
20,2779,0.1,0,0.4,0.4,5.2,8.6,0
20,2863,-0.2,-0.1,-0.2,0.2,5.2,8.3,0
20,2953,0,0,0.1,0,5.2,8.5,0
20,3037,0,-0.1,-0.3,0.4,5.1,7.9,0
20,3122,0,-0.1,0.3,0.2,5.2,8.5,0
20,3207,-0.2,0,0,0,5.3,8.4,0
20,3294,-0.1,0.1,-0.2,0.1,5.3,8.2,0
20,3382,-0.1,0,0,0.2,5.2,8.4,0
20,3468,-0.1,0,-0.1,0,5.2,8.2,0
20,3552,0,-0.1,0.3,0.2,5.2,7.7,0
20,3636,-0.2,0,0,-0.2,5.1,8.7,0
20,3721,0.6,0,1.4,0.7,5,9.2,0
20,3806,-0.2,0,-0.6,0,5.2,7.8,0
20,3894,-0.3,0.5,-0.2,-0.8,5.4,5,0
20,3978,0.4,-0.1,0.7,0.9,5.1,9.1,0
20,4062,0.3,-0.3,0.7,0.2,5,8.3,0
20,4148,-0.4,0.3,-0.4,0,5.9,6.9,0
20,4232,-0.2,-0.1,-0.1,0.1,5.2,9.5,0
20,4317,0.6,-0.6,0.4,0.5,4.7,7.8,0
20,4405,-1,0,-3.9,-0.5,5.5,4.4,0
20,4489,-0.3,0,2.2,0,5.1,9.5,0
20,4573,0.4,-0.2,-1.2,-0.3,5.3,3.6,0
20,4658,-0.2,0.1,2.8,0,5.3,11.4,0
20,4742,-0.1,0,-1.3,0.2,5.1,5.9,0
20,4826,-0.1,-0.1,2.1,0.2,5.2,10.5,0
20,4911,0.1,-0.2,-0.3,0.4,5.3,7.8,0
20,4998,-0.9,0.1,-4.1,-1.2,5.4,3.4,0
21,57,0.3,0.1,2.2,0.3,5.8,9,0
21,142,0.4,-0.2,-1.4,0.1,5.7,6.4,0
21,226,-0.2,-0.1,0.5,-0.5,5.7,8.8,0
21,310,0,0.1,0,-0.3,5.7,7.7,0
21,395,0.2,-0.1,-0.5,0.1,5.7,7.5,0
21,482,0,-0.1,0.9,-0.4,5.9,8.5,0
21,570,0.2,-0.2,-0.5,0.1,5.6,7.3,0
21,655,0.1,0.1,0.3,-0.2,5.8,8.3,0
21,739,-0.1,0.2,0.2,-0.2,5.8,8,0
21,824,0.2,0,0,-0.1,5.6,8,0
21,908,0.1,-0.1,0.1,0,5.5,8.3,0
21,998,-0.1,0,0.1,-0.4,5.8,8,0
21,1082,-0.1,0.1,0.1,-0.2,5.6,7.9,0
21,1171,-0.1,0,0,-0.2,5.6,7.9,0
21,1255,0.1,-0.1,0.1,0.1,5.5,8,0
21,1340,0,0,-0.1,0.1,5.6,8,0
21,1426,0,0,0.2,0,5.6,8.1,0
21,1510,0.2,-0.1,0.4,0.4,5.5,8.4,0
21,1595,-0.2,-0.1,-3.4,-0.6,5.7,7.6,0
21,1679,-0.5,0.1,1.1,-0.3,5.7,8.6,0
21,1766,0,-0.1,-0.5,0.1,5.5,7.4,0
21,1851,-0.1,-0.1,0.2,0.1,5.6,8.2,0
21,1940,-0.3,0.2,0,0,5.7,7.9,0
21,2024,0,-0.1,-0.2,0.1,5.8,7.9,0
21,2110,-0.4,0.1,0.1,-0.2,5.7,7.9,0
21,2193,-0.1,0.1,0.1,0,5.7,7.9,0
21,2277,0,0,0.1,0.1,5.6,8,0
21,2362,0.4,-0.1,0.1,0.6,5.4,8,0
21,2449,0.1,-0.1,0,0.6,5.4,8.1,0
21,2534,0,0,0,0.5,5.5,8.1,0
21,2618,-0.1,0.1,0,0.4,5.5,8,0
21,2703,-0.2,0.1,0.2,0.3,5.6,8.2,0
21,2787,0,-0.1,0,0.6,5.4,8.1,0
21,2871,-0.3,0.1,0.1,0.1,5.5,8.2,0
21,2958,-0.2,0,-0.1,0.2,5.5,8,0
21,3047,0,0,0.3,0.3,5.5,8.4,0
21,3132,-0.4,0.5,-1.7,0.1,5.1,6.1,0
21,3217,0.2,0,1.6,0.4,5.4,10.1,0
21,3300,0.2,0,-0.7,0.4,5.5,7.6,0
21,3385,-0.1,0.1,0.6,0.4,5.5,9,0
21,3470,0,0.1,-0.2,0,5.7,8.8,0
21,3553,0.1,-0.1,-0.4,0.3,5.6,7.3,0
21,3641,0,-0.1,0.1,0.2,5.5,8.2,0
21,3731,-0.2,0.1,-0.1,0.1,5.6,7.8,0
21,3815,0.1,-0.1,-0.1,0.4,5.4,7.9,0
21,3902,-0.3,0.1,0.2,0,5.6,8.2,0
21,3987,0,0,0.3,0.5,5.7,8.2,0
21,4071,0.3,-0.1,0.2,0.5,5.4,10.2,0
21,4156,-0.1,0.1,0,0.2,5.6,7.7,0
21,4240,-0.4,-0.7,-3.1,-0.1,5.8,6.6,0
21,4325,-0.2,0.2,2.9,0,5.6,10.4,0
21,4417,-0.1,-0.2,-1.2,0.4,5.5,6.8,0
21,4503,-0.2,-0.1,0.3,0.1,5.5,8.6,0
21,4589,-0.1,0,0,0.2,5.6,7.7,0
21,4676,0.1,-0.1,-0.1,0.3,5.6,7.8,0
21,4765,-0.2,0,0,0.1,5.6,8.1,0
21,4850,0.1,-0.1,0.3,0.3,5.5,8.3,0
21,4939,-0.1,0,0,0,5.7,8,0
22,29,0,0,0.2,0.2,5.6,8.3,0
22,113,0.6,-0.3,1.4,0.6,5.5,10.5,0
22,197,0.1,-0.1,-0.6,0.4,5.5,7.4,0
22,282,-0.2,0.1,-0.7,-0.9,5.7,4.3,0
22,366,-0.3,0.2,2.9,0,5.6,10.4,0
22,451,0.2,-0.2,-1,0.2,5.4,6.6,0
22,535,-0.2,0.1,2.3,-0.5,5.9,10.7,0
22,624,0.2,0.3,-0.3,0.2,5.5,7.6,0
22,708,0.3,-0.8,-1.6,0,5.6,7.7,0
22,793,-0.4,0,1.6,0.3,5.7,8.5,0
22,877,-0.3,-0.1,-3.2,0.3,5.3,5.6,0
22,961,-0.2,0,1.8,0,5.5,9.5,0
22,1046,-0.2,-0.2,-0.5,0.2,5.5,7.6,0
22,1130,-1,-0.4,-3.6,0.3,5.7,5.5,0
22,1218,-0.1,0.1,3.8,0.1,5.4,11.1,0
22,1303,0.1,-0.2,-1.3,0.2,5.5,6.4,0
22,1387,-0.2,-0.1,0.4,0,5.8,8.8,0
22,1471,0.2,0,0.9,0.4,5.6,8.3,0
22,1556,0,-0.6,-2.4,0.3,5.5,7.9,0
22,1640,-0.6,0.1,2.2,0.1,5.5,8.9,0
22,1726,-0.2,-0.2,-0.7,0,5.6,7.4,0
22,1815,-0.1,0,0.6,0,5.7,8.6,0
22,1902,0.1,-0.1,-0.3,0.3,5.6,7.7,0
22,1986,0,-0.1,0.3,0.1,5.6,8.3,0
22,2071,-0.1,0,0,0.2,5.6,7.8,0
22,2162,0.1,-0.1,-0.1,0.2,5.6,8,0
22,2246,0,0,0.2,0.1,5.7,8.1,0
22,2331,0,0,-0.1,0.1,5.6,7.9,0
22,2416,-0.1,0,0.1,0.1,5.6,8.2,0
22,2500,0,-0.1,-0.3,0.2,5.6,7.8,0
22,2584,0.1,0,0.3,0.2,5.6,8.2,0
22,2672,-0.1,-0.1,0,0.1,5.6,8,0
22,2756,-0.1,0,-0.2,-0.1,5.7,7.9,0
22,2840,-0.1,0.1,1.1,0,5.7,9.8,0
22,2924,0.3,0,0.8,0.3,5.3,8,0
22,3008,0,-0.1,-0.6,-0.1,5.6,7.4,0
22,3093,0,-0.1,0,0.1,5.5,8.1,0
22,3178,0.1,-0.1,0.3,0.1,5.6,8.4,0
22,3264,-0.5,0,-1.8,-0.4,5.7,6.7,0
22,3350,0.6,-0.2,1.1,0.2,5.3,8.3,0
22,3434,0.2,-0.2,0.2,0.4,5.3,9.7,0
22,3520,-0.3,-0.1,-0.2,-0.2,5.6,7.1,0
22,3612,0.1,-0.2,-1.4,0.4,5.5,8.1,0
22,3698,0.3,-0.3,1.9,0.3,5.2,8.8,0
22,3785,-0.6,-0.1,-4.1,-0.6,5.4,6,0
22,3870,0.2,-0.1,3.3,0.2,5.3,11.3,0
22,3956,-0.2,-0.2,-0.6,-0.6,5.9,4.6,0
22,4044,-0.3,0.2,0.4,-0.5,5.7,9.5,0
22,4133,0.3,-0.4,0.6,0.2,5.2,7.7,0
22,4219,0,-0.2,-0.9,-0.3,5.6,7.4,0
22,4307,-0.7,0.1,-2.9,-0.6,5.6,8.6,0
22,4394,0.2,-0.3,1.2,0.6,5.4,8,0
22,4479,0,-0.2,1,-0.2,5.6,10.5,0
22,4564,0.1,-0.1,1.1,0,5.5,8.2,0
22,4648,0.1,-0.2,0.1,-0.2,5.6,9.4,0
22,4733,0.2,-0.2,0,0.3,5.5,7.5,0
22,4817,-0.2,-0.1,-0.2,-1.1,5.8,4.8,0
22,4903,-0.1,0.1,2.4,0.1,5.4,11.1,0
22,4991,0.3,-0.3,-0.9,0.2,5.4,6.7,0
23,79,-0.6,-0.4,-1.9,-0.2,5.7,8.2,0
23,160,0.2,-0.1,3.1,0,5.3,10,0
23,249,-0.3,0,-3.9,-0.6,5.5,3.7,0
23,334,-0.3,-0.1,2.7,-0.3,5.5,10.3,0
23,418,-0.5,-0.2,-3.2,-0.7,5.2,6,0
23,503,0.2,-0.1,2.7,-0.3,5.8,9.2,0
23,589,0.2,-0.2,1.1,0,5.5,9.8,0
23,679,0.1,-0.1,-0.8,0,5.7,7.1,0
23,763,-0.5,-0.4,-1.2,-0.1,5.6,10,0
23,847,0.3,-0.2,1.1,0.4,5.5,8.1,0
23,941,-0.4,-0.4,-1.3,-0.3,5.6,8.7,0
23,1023,0,-0.2,0,0,5.6,6.7,0
23,1108,-0.3,-0.4,-0.6,0,5.4,8,0
23,1192,0.4,0,1.3,0.2,5.3,9.3,0
23,1276,-0.2,-0.2,-0.8,-0.3,5.6,7.2,0
23,1363,-0.4,0,0.2,-0.6,6,7.1,0
23,1449,0.4,0.1,1.9,0,5.5,10,0
23,1535,0.1,-0.2,-2.3,-0.2,5.4,6.8,0
23,1621,-0.5,0,1.9,-0.1,5.5,8.8,0
23,1705,0,-0.1,-0.9,0.2,5.5,8.6,0
23,1790,0.6,-0.3,0.5,0.2,5.6,7.7,0
23,1877,-0.3,-0.1,0.2,-0.9,5.8,9.7,0
23,1962,0.1,-0.1,0.4,-0.4,5.5,7.3,0
23,2056,0.3,-0.3,1.6,0,5.3,9.6,0
23,2140,0,-0.1,-1,-0.3,5.6,6.9,0
23,2224,-0.5,0,-2.2,-0.8,5.7,7,0
23,2308,-0.1,0.1,2.2,-0.3,5.4,8.9,0
23,2397,0,0.3,-0.1,-0.1,5.4,8.1,0
23,2481,0.2,-0.1,1.3,-0.1,5.5,9.9,0
23,2566,0.1,0,-1.2,0,5.7,6.8,0
23,2650,0.1,-0.2,-0.1,0,5.6,8.3,0
23,2734,-0.1,0,0.1,-0.1,5.7,7.8,0
23,2819,0.1,0,-0.2,0,5.6,7.7,0
23,2903,0.1,-0.1,0.3,-0.1,5.6,8.1,0
23,2991,0,0,-0.1,0,5.6,7.9,0
23,3076,0,0,0,-0.1,5.7,7.9,0
23,3160,0.1,-0.1,0.1,-0.1,5.7,8,0
23,3244,0,-0.1,0,0,5.6,8,0
23,3329,-0.1,0.1,0,-0.1,5.6,7.9,0
23,3413,0.2,-0.1,0,0.1,5.5,8,0
23,3497,0,0,0.1,0,5.7,7.9,0
23,3583,-0.1,0,0,-0.2,5.7,8,0
23,3672,-0.2,0,-0.1,-0.3,5.7,7.9,0
23,3756,0,0,-0.1,-0.2,5.7,7.8,0
23,3840,0.2,0,0.1,-0.2,5.7,8.1,0
23,3926,0,0,-0.1,-0.2,5.7,7.7,0
23,4011,0,0,0.1,0,5.7,8.1,0
23,4098,0.2,-0.1,0,0.2,5.6,7.9,0
23,4182,-0.1,0,0,-0.2,5.7,8.1,0
23,4266,-0.1,0,-0.1,-0.2,5.7,7.8,0
23,4351,0.1,0,0.2,0,5.7,8.1,0
23,4439,-0.3,0,-2.3,-0.5,5.8,8.1,0
23,4521,0.2,-0.2,0.8,0.3,5.4,8.2,0
23,4611,-0.6,-0.3,-2.2,-0.7,5.8,7.6,0
23,4710,0.1,0,0.2,0,5.6,8.4,0
23,4795,-0.1,0.3,0.3,-0.4,5.5,7.9,0
23,4879,-0.6,-0.1,-3,-0.2,5.8,6.7,0
23,4963,0.2,0,2.1,0.2,5.5,9.7,0
24,48,-0.2,0.1,2,-0.5,5.8,11.1,0
24,132,0.4,-0.4,0.2,0,5.4,7.4,0
24,216,-0.2,-0.3,-1.5,0,5.7,8.4,0
24,301,0,-0.1,2.3,0,5.4,9.1,0
24,385,-0.3,-0.3,-2.9,-0.6,5.5,7.3,0
24,470,0.4,-0.5,2.2,0.6,5.2,8.8,0
24,557,-0.6,-0.3,-4.6,-0.7,5.3,5.1,0
24,642,0.1,-0.1,3.8,0.3,5.3,11.3,0
24,726,0.2,-0.5,-1.7,-0.1,5.5,7.8,0
24,811,0.3,-0.2,1.5,-0.4,5.5,8.4,0
24,895,-0.2,-0.2,-0.4,-0.5,5.6,7.6,0
24,979,0.2,-0.2,1.8,-0.2,5.7,10,0
24,1063,0.6,-0.3,0.1,0.2,5.4,7.7,0
24,1149,-0.3,-0.3,0.9,-0.3,5.7,10.3,0
24,1235,0,-0.2,-1.4,-0.1,5.5,6.8,0
24,1320,-0.2,-0.4,0.2,0.2,5.3,7.7,0
24,1404,-0.1,-0.2,0.2,-0.3,5.5,8.4,0
24,1488,0.7,-0.2,1.7,0.5,5.3,9.6,0
24,1572,-0.2,-0.2,-1.2,-0.4,5.5,7.4,0
24,1657,-1.2,0.1,-3.7,-0.8,5.7,7.3,0
24,1741,0.1,0,2.4,-0.4,5.5,9.8,0
24,1828,0.1,-0.4,-1.7,0,5.3,8.3,0
24,1912,0.1,-0.2,1.3,0,5.7,7.8,0
24,1997,-0.2,-0.3,-1.7,-0.3,5.5,7.7,0
24,2081,0.5,-0.2,1.9,0,5.3,8.8,0
24,2165,-0.9,-0.3,-2.9,-0.9,5.8,5.8,0
24,2249,0.2,-0.1,4,0.3,5.4,10.9,0
24,2334,-0.1,-0.3,-4.1,-0.1,5.3,4.7,0
24,2418,-0.3,-0.2,2,-0.8,5.7,10.4,0
24,2507,-0.1,-0.1,-0.6,-0.2,5.5,7.7,0
24,2591,0.5,-0.5,0.7,0.1,5.2,8,0
24,2676,-0.9,0,-3,-0.9,5.6,5.3,0
24,2760,-0.1,0.2,3.1,0.1,5.5,11.2,0
24,2845,0.2,-0.2,-0.4,-0.1,5.7,8,0
24,2930,0.4,-0.2,0.9,0.1,5.6,9.7,0
24,3022,0,-0.2,-1.5,0,5.6,6.6,0
24,3106,-0.2,-0.1,0.2,-0.3,5.7,8.1,0
24,3190,0.2,0,0.2,0.1,5.6,7.9,0
24,3275,0,-0.1,-0.1,-0.3,5.6,8,0
24,3359,0,0.1,0.3,-0.4,5.7,8,0
24,3444,0,0,0,-0.1,5.6,8,0
24,3539,-0.1,0,0,-0.2,5.6,7.9,0
24,3623,-0.1,0,0.1,-0.3,5.8,7.8,0
24,3709,0.1,-0.1,0,-0.1,5.6,7.9,0
24,3798,0.1,-0.1,0,0.1,5.6,8,0
24,3884,0,0,-0.1,-0.2,5.7,8,0
24,3971,-0.2,0.1,0.2,-0.5,5.8,8.3,0
24,4061,0.1,0,0.8,0,5.6,9.7,0
24,4153,0.4,-0.2,-0.2,-0.2,5.5,7,0
24,4250,-0.5,-0.4,-3.2,-0.8,5.7,7.4,0
24,4335,0.4,-0.1,3.1,0.5,5.3,9.7,0
24,4419,-0.1,-0.1,-1.4,-0.7,5.7,7.1,0
24,4508,0.2,0.1,3,-0.2,5.6,11.1,0
24,4592,0.5,-0.2,0.2,-0.3,5.9,4.4,0
24,4676,-0.2,-0.3,1.3,-0.8,5.7,10,0
24,4761,0,-0.1,-0.4,-0.3,5.6,7.1,0
24,4845,0.3,-0.2,0.6,-0.1,5.4,8.7,0
24,4930,-0.2,-0.2,-0.6,-0.4,5.5,7.1,0
25,42,-1.3,0,-3.9,-0.6,5.8,6.4,0
25,129,0.3,-0.1,1.5,0,5.6,8.6,0
25,213,0,-0.2,-1.8,0.3,5.5,7.5,0
25,298,-0.1,-0.1,1.3,-0.1,5.6,8.3,0
25,386,0.4,-0.2,1.5,-0.2,5.5,11.1,0
25,470,0.5,-0.3,0.8,0.2,5.4,8.2,0
25,556,-0.1,-0.4,0.3,-0.7,5.8,9.3,0
25,640,0.1,-0.1,0.2,-0.3,5.4,8,0
25,725,0,-0.1,1.1,-0.3,5.3,8.3,0
25,810,-0.2,-0.3,-3,-0.6,5.8,5.9,0
25,900,0.6,-0.1,2.6,0.2,5.2,10.1,0
25,993,-0.3,-0.1,-3.6,-0.8,5.6,4.9,0
25,1079,0.1,0,3,0.2,5.4,10.5,0
25,1166,0.1,-0.2,-3.1,-0.1,5.4,5.7,0
25,1252,-0.4,-0.2,1.6,-0.5,5.4,10.2,0
25,1341,0.2,-0.2,-0.3,0.1,5.5,7.1,0
25,1431,-0.6,-0.2,-0.5,-0.7,5.5,8.3,0
25,1517,0.5,-0.2,1.4,0.4,5.4,9.6,0
25,1602,0.3,-0.4,-0.6,0,5.4,6.9,0
25,1687,-0.2,-0.1,-0.4,-0.4,5.7,7.8,0
25,1771,-0.3,0,1,-0.9,5.9,4.8,0
25,1864,0.1,0.1,2.5,-0.3,5.5,11.2,0
25,1949,0.2,-0.2,-0.6,-0.3,5.7,5.4,0
25,2033,-0.3,-0.3,-1,-1,5.6,8.8,0
25,2117,0.2,-0.1,-0.3,-0.5,5.4,6.6,0
25,2205,0.2,-0.4,1.5,-0.3,5.4,9.5,0
25,2289,-0.5,0.2,-0.7,-0.7,5.7,5.8,0
25,2375,0.1,-0.1,-0.1,-0.3,5.6,7.5,0
25,2459,0.3,-0.4,2,-0.2,5.3,10.9,0
25,2543,0.2,-0.1,0,0,5.4,7,0
25,2628,-0.5,-0.1,-0.9,-0.7,5.5,8,0
25,2714,-0.4,0.1,0.6,-0.8,5.7,8.2,0
25,2800,0.1,-0.1,-0.2,-0.2,5.5,7.7,0
25,2885,-0.1,-0.1,0.3,-0.3,5.5,8.4,0
25,2972,-0.9,-0.1,-2.6,-0.6,5.6,5.1,0
25,3057,0.1,0,1.1,-0.2,5.4,8.6,0
25,3141,0.3,-0.1,-1,0,5.5,6.8,0
25,3229,0,-0.1,0.4,-0.3,5.6,8.6,0
25,3313,0.1,-0.1,-0.1,-0.3,5.6,8,0
25,3397,0.3,-0.1,0.2,-0.1,5.5,8.5,0
25,3488,0.2,0,-0.1,-0.4,5.7,7.8,0
25,3570,0.1,0,0.2,-0.2,5.6,8,0
25,3659,-0.3,0.1,0,-0.6,5.6,8.1,0
25,3743,-0.1,-0.1,0.1,-0.2,5.5,8,0
25,3828,0,0,0.1,-0.1,5.5,8.1,0
25,3916,0,0,0.1,0,5.6,8.1,0
25,4002,0.1,0,-0.2,0.2,5.5,7.9,0
25,4089,0.1,-0.1,0.2,0.1,5.5,8.3,0
25,4173,-0.2,0,-0.2,-0.3,5.5,7.9,0
25,4257,0,0,0,0,5.5,8.2,0
25,4342,0,0,0,0.1,5.5,8.6,0
25,4426,0,-0.1,0,0,5.5,7.8,0
25,4511,-0.4,0.2,-0.2,-0.4,5.9,7.9,0
25,4595,0,0.3,-0.1,-0.2,5.7,8.1,0
25,4685,0.5,-0.1,-0.3,0.6,5.3,7.9,0
25,4770,0.3,-0.2,-0.1,0.5,5.3,8.6,0
25,4855,-0.4,0.2,0.5,-0.3,5.5,8.7,0
25,4939,0.2,0,0.1,0.3,5.5,7.8,0
26,27,-0.1,-0.1,-0.5,0.1,5.5,8,0
26,112,-0.1,0,0.5,0.2,5.4,8.6,0
26,197,-0.1,-0.1,0.1,0.2,5.5,8,0
26,281,0.2,-0.1,-0.2,0.5,5.5,7.8,0
26,365,0,-0.1,0.4,0.5,5.7,8.3,0
26,450,-0.3,0.1,-0.3,0.1,5.7,7.9,0
26,534,-0.1,-0.3,-0.5,0.5,5.2,8.1,0
26,618,-0.5,0,0,0.4,5.6,8.5,0
26,707,0.1,0,-0.2,0.5,5.3,8.3,0
26,791,-0.9,0.5,0.7,0.7,5.5,9.7,0
26,876,0.5,-0.2,-0.9,1.1,5.1,7.2,0
26,960,0.1,0,0,0.6,5.6,7.7,0
26,1044,-0.4,0.3,0.8,-0.4,5.7,8.6,0
26,1130,-0.2,0,0.4,0,5.3,8.2,0
26,1213,0.6,-0.3,-0.2,0.5,5.1,7.9,0
26,1301,0,0.1,-0.3,0.2,5.3,7.7,0
26,1385,-0.2,0,0,0,5.2,8.2,0
26,1471,-0.2,0,0.2,0,5.1,8.5,0
26,1561,0,0.1,-0.2,0,5.1,8.3,0
26,1647,0,0,0.1,0,5.2,8.3,0
26,1732,-0.1,0,0.3,0,5.1,8.4,0
26,1816,0,0,-0.1,0.1,5.1,9,0
26,1902,0.6,0.1,-0.8,0.9,5.3,8,0
26,1989,0.1,0,-0.9,0.7,5.3,8,0
26,2073,-0.1,0.2,0,0.4,5.3,7.7,0
26,2160,0,0,0,0.4,5.3,8.1,0
26,2245,0.4,-0.1,0.3,0.4,5.4,8.7,0
26,2329,0,0,-0.1,0.3,5.5,7.7,0
26,2414,-0.4,0,-0.3,-0.6,5.6,7.3,0
26,2498,-0.3,0.6,-0.3,0.3,5.4,7.1,0
26,2582,0.7,-0.4,0.7,0.9,5.3,7.5,0
26,2672,0.5,0.1,-0.2,0.7,5.4,8,0
26,2758,-0.4,0.1,0.1,-0.1,5.7,7.9,0
26,2841,0,0,-0.3,0.1,5.5,7.8,0
26,2926,0,0,0.4,0,5.6,8.3,0
26,3013,0.4,-0.3,-1,-0.3,5.5,7.1,0
26,3095,0.4,-0.1,-0.5,0.1,5.3,7.7,0
26,3179,-0.1,0.1,0.4,-0.1,5.5,7.9,0
26,3264,-0.1,0,1.3,0.4,5.6,8.4,0
26,3354,-0.1,0.1,0.3,0,5.5,8,0
26,3442,-0.1,0,0.4,0,5.4,8.8,0
26,3530,0,-0.1,-0.2,0.2,5.3,8.1,0
26,3615,0,0,-0.2,0.4,5.5,7.9,0
26,3701,-0.1,0,0.3,0.4,5.5,7.7,0
26,3784,-0.1,0.2,0.1,0.1,5.4,7.6,0
26,3869,-0.2,0,0.2,0.3,5.4,7.9,0
26,3957,0.1,-0.7,0,-0.1,5.4,8.3,0
26,4052,0,-0.2,0.2,0.2,4.8,8.2,0
26,4138,0.3,0.2,1.2,0.6,5.2,8.9,0
26,4228,-0.1,0,0.9,0.7,5.5,8.6,0
26,4315,-0.1,0,-0.3,0.7,5.9,7.8,0
26,4397,-0.2,0,0.5,0.7,5.2,7.6,0
26,4482,-0.2,0,0,0.2,5.5,7.9,0
26,4566,0,-0.1,0.3,0.5,5.4,8.5,0
26,4650,-0.2,0,0.2,0.3,5.3,8.3,0
26,4740,-0.1,0,-0.1,0.1,5.4,8.1,0
26,4824,0,0,0.2,0.2,5.3,8.2,0
26,4909,0,0,-0.1,0.2,5.3,8.1,0
26,4993,0,0,-0.2,0.3,5.3,7.9,0
27,77,-0.1,0,0.3,0.4,5.3,8.2,0
27,161,0,0,-0.1,0.2,5.4,8.2,0
27,247,0,0,0.1,0.3,5.3,8.1,0
27,339,0,0,0,0.2,5.3,8.2,0
27,423,-0.1,0,-0.1,0.1,5.4,8,0
27,509,0.1,0,0,0.2,5.3,8.2,0
27,593,0,0,0.3,0.3,5.3,8.4,0
27,683,0.1,0,0.1,0.6,5.4,8,0
27,768,-0.1,0,-0.5,0.2,5.3,8.2,0
27,852,-0.1,0.2,-0.5,0,5.6,8.2,0
27,937,0.1,0,-0.2,0.2,5.3,7.9,0
27,1031,0,0,0,0.1,5.3,8.5,0
27,1116,0,0.1,0.3,0.2,5.3,8.4,0
27,1204,0,-0.1,0.4,0.2,5.2,8.3,0
27,1292,0.3,0,0.8,0.4,5.2,8.1,0
27,1378,0.2,-0.1,-0.3,0.2,5.4,7.4,0
27,1471,0.1,0.2,0.3,0.3,5.4,8.4,0
27,1561,-0.1,0,-0.2,0.1,5.5,7.6,0
27,1645,-0.1,0,-0.1,0.1,5.4,8.4,0
27,1729,-0.1,0,0.2,0.1,5.4,8,0
27,1813,0,0.1,-0.1,0.2,5.4,8.3,0
27,1898,0,0,-0.2,0.1,5.4,8.1,0
27,1991,-0.1,-0.1,0.7,-0.1,5.4,9,0
27,2076,0.4,-0.2,0,0.4,5.1,8,0
27,2165,-0.4,1.1,1,-0.3,5.7,8.9,0
27,2250,-0.2,0.1,0.1,0,5.5,7.9,0
27,2334,0.2,-0.1,-0.4,-0.1,5.4,8.2,0
27,2418,0.6,-0.3,-0.1,0.9,5.1,7.6,0
27,2504,0.6,0,0.6,2,5.3,7.7,0
27,2589,0,-0.2,-0.6,0.4,5.5,5.3,0
27,2673,-0.6,0.5,-0.2,0.8,5.7,8.1,0
27,2761,0,0,-0.1,0.3,5.4,7.6,0
27,2847,0.1,-0.1,-0.2,0.3,5.3,8,0
27,2930,-0.1,-0.1,0.1,0.2,5.3,8.3,0
27,3016,-0.3,0,-0.2,0.3,5.4,8.1,0
27,3102,0.3,0,0.6,0.4,5.1,8.4,0
27,3186,0.2,-0.1,0,0.5,5.2,8.1,0
27,3277,-0.2,0.1,-0.2,0.4,5.3,8,0
27,3361,0.2,0,0.3,0.5,5.1,8.7,0
27,3445,0.1,0,0.1,0.3,5.3,8.2,0
27,3530,-0.1,0,0,0.2,5.2,8.3,0
27,3614,0,0,0,0.4,5.1,8.4,0
27,3698,0.2,0,0.3,0.6,5.1,8.2,0
27,3787,-0.1,-0.1,-0.1,0.4,5.1,8.4,0
27,3875,-0.2,0.1,-0.9,0.5,5.1,8,0
27,3962,0,-0.1,-0.4,0.5,5.2,8,0
27,4047,0.2,-0.1,-0.3,0.6,4.9,8,0
27,4135,0.1,0.1,-0.3,1.1,5.5,7.9,0
27,4220,0.1,-0.1,-1.5,-0.9,6.5,3.8,0
27,4305,-0.2,0.2,-0.7,0,5.1,7.2,0
27,4392,0.9,0,0.8,1.5,4.6,9.4,0
27,4478,0.4,-0.1,-1.3,0.7,5,8.1,0
27,4565,-0.4,0.1,1.2,0.3,5.5,9.2,0
27,4654,-0.2,0,0.3,0.3,5.2,8.3,0
27,4744,0,0,0.1,0.5,5.2,8.6,0
27,4828,-0.2,-0.1,0,0.2,5.1,8.4,0
27,4913,0.2,0.2,-0.2,0.9,5.1,8,0
27,4998,0.3,-0.2,-0.6,0.8,5.4,7.5,0
28,83,-0.3,0.2,1,0.3,5.2,9.9,0
28,167,0,-0.1,0.6,0.5,5,9,0
28,252,0.3,-0.1,-0.6,0.3,5,7.4,0
28,336,-0.1,0,0,0.3,4.9,8.3,0
28,422,-1,0.7,0.8,0.4,5.4,7.9,0
28,506,0.3,-0.2,-0.8,0.5,5,7,0
28,593,-0.3,0.1,0.1,-0.5,5.3,8.8,0
28,677,0.3,0,0.8,0,4.9,9.3,0
28,761,0,0.1,-0.4,0.2,4.9,7.9,0
28,847,0.1,0,0.2,0.3,4.9,8.6,0
28,930,0,0,-0.1,0.2,5,8.4,0
28,1018,-0.1,0,-0.2,0.1,4.9,8.4,0
28,1102,-0.1,0.1,0.3,0.1,5,8.7,0
28,1187,0,0,-0.1,0.2,5,8.4,0
28,1274,-0.2,0,-0.9,0.4,5.1,7.5,0
28,1362,0.3,-0.1,-0.2,0.9,4.9,7.2,0
28,1455,0.4,-0.1,0.2,0.8,5.1,7.9,0
28,1540,-0.2,0.4,1.3,0.7,5.3,8.8,0
28,1626,0.1,-0.1,0.1,0.3,5.2,7.9,0
28,1714,-0.1,0.1,-0.2,0.2,5.1,8.4,0
28,1799,-0.1,0.1,0.2,0.5,5.1,8.3,0
28,1884,0.1,0,-0.5,0.5,5,8.2,0
28,1970,0.3,0,0.2,0.3,5,8.7,0
28,2058,0.2,0,0.6,0.6,5.1,8.4,0
28,2143,-0.6,0,-0.9,-1.6,5.5,9.4,0
28,2228,0.3,-0.2,-0.2,0,4.6,8.9,0
28,2312,0.1,-0.8,-0.4,-1.4,6.1,9.2,0
28,2399,0.1,-0.3,-0.5,0.3,5,8.2,0
28,2484,-0.1,0,-0.1,0.2,5.1,8.1,0
28,2569,-0.3,0.1,0,0,5.2,8.3,0
28,2653,-0.1,0.3,0,0.2,5.1,8.4,0
28,2739,-0.1,0,-0.1,0.6,5.1,8,0
28,2824,-0.2,1,-1.8,0,4.4,7.5,0
28,2908,0.9,-0.2,0.8,1.2,4.6,9.2,0
28,3003,-2.3,-0.2,-0.2,-1.2,5.7,9,0
28,3091,0.2,-0.3,0.3,0.4,4.9,8.4,0
28,3176,0,0,-0.6,0.2,5.2,8.1,0
28,3259,-0.1,-0.1,0.8,0.3,5.1,8.8,0
28,3347,-0.3,0.1,-0.3,0.2,5.2,8,0
28,3433,0,0,0.3,0.4,5.1,8.6,0
28,3518,0,0,0,0.3,5.1,8.4,0
28,3602,-0.1,0,-0.3,0.4,5.1,8.1,0
28,3688,-0.1,0,0,0.4,5.1,8.3,0
28,3777,-0.1,0,0.1,0.3,5.1,8.2,0
28,3862,-0.3,0.1,0.2,0.1,5.1,8.2,0
28,3948,0,0,0,0.4,5,8.4,0
28,4036,0,0,0.1,0.3,5.1,8.1,0
28,4124,-0.1,0,0.5,0.2,5,8.3,0
28,4209,0.2,0,0.3,0.8,5,8.8,0
28,4294,-0.9,0.2,-1.1,-0.9,5.5,8.5,0
28,4380,0.7,-0.5,-0.9,1,4.6,7.9,0
28,4466,-0.3,-0.1,0.1,-0.5,5.8,9.4,0
28,4554,0.9,-0.3,0.4,0.4,4.9,8.7,0
28,4638,-1,0.3,0.6,-0.4,5.5,9.2,0
28,4726,0.3,-0.2,0.7,0.6,5.2,9.3,0
28,4814,-0.1,0.1,-0.8,0.5,5.4,8,0
28,4902,0.1,-0.2,0.1,0.7,4.9,7.8,0
28,4988,-0.6,0.4,1.1,0.3,5.6,9.1,0
29,72,0.1,0,0.7,0.5,5.2,8.7,0
29,156,-0.1,0,0.1,0.4,5.2,8.3,0
29,241,0.1,0,0.4,0.3,5.2,8.5,0
29,326,0.3,-0.1,0.7,0.5,5.4,8.7,0
29,418,0,0,0,0.6,5.3,8,0
29,502,-0.2,0.1,0.4,0.4,5.3,8.4,0
29,587,0.3,-0.1,0.2,0.9,5.1,8.3,0
29,673,-0.1,0,-0.6,0.7,5.1,7.1,0
29,758,-1.1,0.4,0,-1.9,6.5,6.4,0
29,843,-0.6,0.5,0.7,-0.5,5.9,8.2,0
29,927,0.5,-0.1,-0.2,0.1,5.4,8,0
29,1015,-0.3,0,-0.2,-0.5,5.6,8.4,0
29,1099,0.4,-0.2,0.4,0.4,5,9.1,0
29,1186,0.3,0,0.8,1.1,5.1,8.5,0
29,1270,-0.5,0.2,0.6,0.1,5.5,9,0
29,1356,0,0,0.1,0.2,5.2,8.1,0
29,1441,0.3,0,-0.2,1.8,4.9,7.7,0
29,1526,-0.4,0.3,0,-0.2,5.7,7.5,0
29,1613,-0.8,0.2,1.6,-0.9,6.6,9.5,0
29,1698,0.1,-0.3,-0.7,0.2,5.3,8,0
29,1787,-0.2,0,-0.9,0.3,5.3,7.2,0
29,1872,-0.3,0.1,0.4,0.1,5.4,8.2,0
29,1957,0.3,-0.2,0.2,0.7,5.3,8,0
29,2048,0,0,-1,-0.1,5.3,7.2,0
29,2125,0,0.2,0.1,0,5.4,8,0
29,2209,0.2,0,-0.1,1,5.3,7.8,0
29,2294,0,-0.1,0.1,0.3,5.3,8.6,0
29,2378,0,0,-0.5,0.5,5.4,7.7,0
29,2464,-0.5,-0.1,-0.4,0,5.5,8.5,0
29,2549,0.5,-0.2,0,0.6,5.3,8,0
29,2633,0,0,-1,0.7,5.5,7.1,0
29,2730,0,0,0.1,0.6,5.4,8.2,0
29,2814,0,0,-0.3,0.6,5.5,7.7,0
29,2906,0.1,-0.1,-0.1,0.7,5.4,8,0
29,2997,-0.2,-0.4,-0.3,0.5,5.4,8.9,0
29,3082,0.2,-0.5,-0.9,0.3,5.3,8.3,0
29,3166,0.1,-0.5,-1.1,0.1,5.6,9.1,0
29,3253,0,-0.2,1.1,0.5,5.4,8.6,0
29,3341,-0.8,0.7,1.4,-0.4,6.1,8.3,0
29,3425,0.1,-0.1,0.6,0.1,5.5,8.6,0
29,3510,0.2,0,0.1,0.4,5.3,7.7,0
29,3595,-0.3,0.1,-0.1,0.2,5.4,8,0
29,3678,-0.1,-0.1,0.9,0.3,5.3,8.7,0
29,3764,0.3,0,0.4,0.5,5.2,8.4,0
29,3849,-0.5,0.3,-1,-0.9,5.6,8.2,0
29,3938,-0.3,0,-0.3,-0.1,5.4,7.6,0
29,4022,0.6,-0.2,-0.3,1.2,5.1,7.8,0
29,4106,0.1,-0.1,0.1,0.6,5.2,8.3,0
29,4192,-0.2,0.4,1.3,-0.2,5.4,9.3,0
29,4284,0,0.1,0.3,0.3,5.3,8.2,0
29,4369,-0.2,0.2,0.1,0.4,5.1,7.9,0
29,4456,-0.2,0.2,0.1,1.1,5.2,8.1,0
29,4547,0.2,0,0.2,0.2,5.4,9,0
29,4630,-0.1,0,0.3,0.7,5.4,8.4,0
29,4715,0.2,-0.1,-0.7,0.7,5.3,7.4,0
29,4799,-0.3,0,0,0,5.5,8.6,0
29,4898,-0.4,0.4,0.7,0.8,5.4,8.1,0
29,4988,0.1,-0.1,-1.2,-0.1,5.3,6.3,0
30,48,0.4,-0.2,0.2,0.5,5.1,8.6,0
30,133,-0.2,-0.2,-0.6,0.3,5.1,7.8,0
30,217,0.1,0,0.5,0.8,5.1,7.8,0
30,304,0,0.1,-1.2,1.1,5.3,7.2,0
30,388,0.2,-0.2,0.2,0.5,5.2,8.4,0
30,483,-0.4,0.9,0.8,-0.1,5.4,8.5,0
30,568,-0.1,0,0,0.1,5.3,7.9,0
30,656,0,0,0.3,0.2,5.2,8.6,0
30,740,-0.1,0,-0.1,0.2,5.3,7.9,0
30,834,0,0,0,0.2,5.2,8.4,0
30,923,-0.1,0.1,-0.1,0.2,5.3,8.1,0
30,1007,-0.1,0,0,0.2,5.3,8.3,0
30,1092,0,0,-0.1,0.4,5.3,8,0
30,1176,-0.1,0.1,0,0.3,5.3,8.2,0
30,1261,0,0,0,0.3,5.3,8.2,0
30,1345,0,0,-0.2,0.3,5.2,7.9,0
30,1432,-0.1,0.1,-0.3,0.4,5.2,7.8,0
30,1518,0.3,-0.1,0.7,0.3,5,8.7,0
30,1602,-0.6,1.1,-2,-1.4,4.5,7.7,0
30,1687,0.8,0.1,0,0.6,5.2,7.7,0
30,1772,-0.5,-0.2,-1.7,-1,4.7,8.6,0
30,1861,-0.1,-0.1,1.1,-0.5,5,9.5,0
30,1949,0.4,-0.1,-0.3,0.5,5.1,8,0
30,2033,-0.1,0,-0.1,0.2,5.1,8.5,0
30,2117,-0.2,0.1,0.2,0.1,5.2,8.3,0
30,2201,0.2,-0.1,-0.4,0.4,5.1,7.9,0
30,2286,-0.1,0.1,0.3,0,5.2,8.6,0
30,2374,0,0,-0.2,0.1,5.1,8.2,0
30,2459,0,0,0.1,0.2,5.1,8.5,0
30,2552,0.3,-0.1,-0.1,0.2,5,8,0
30,2637,-0.1,0.1,-0.2,-0.1,5.5,7.8,0
30,2722,-0.3,0.2,0.5,-1.3,5.5,7.7,0
30,2806,-0.3,1.1,1.2,-0.9,6.3,8.1,0
30,2890,0.9,0,-0.3,1.1,4.8,9.6,0
30,2974,0.3,-0.1,0.3,0.8,4.7,8.4,0
30,3058,-0.1,0.2,0.5,0.1,5.1,8.5,0
30,3143,0,0,-0.2,0.3,5,9.2,0
30,3228,0.2,0,0.2,0.1,4.9,7.7,0
30,3330,0.8,0,0.5,1.6,4.7,8.9,0
30,3421,-0.6,-0.1,0.2,0,4.8,8.5,0
30,3506,-0.5,0.1,0.9,0,4.8,9.2,0
30,3591,0,-0.1,-0.3,0,5.3,5.5,0
30,3677,0.8,0.1,-0.3,1.3,4.9,8.1,0
30,3764,-0.4,0,-0.5,0,5,7.7,0
30,3848,0,0.1,0.5,0.3,4.8,8.8,0
30,3935,0.1,0.1,-0.3,0.3,5,8.2,0
30,4019,0.2,0.5,0.7,0.2,5.2,9.9,0
30,4108,-0.3,-0.2,-1.2,0,5,7,0
30,4194,0.3,-0.6,0,0.7,4.4,8.6,0
30,4277,0.1,0,-0.3,0.6,4.6,8.5,0
30,4361,0.3,-0.1,0.6,0.9,4.6,8.7,0
30,4445,-0.2,0,0.2,0.5,5,8.5,0
30,4529,-0.2,0,-0.3,0.3,4.9,8.4,0
30,4613,-0.2,-0.1,-0.2,1,4.8,9.1,0
30,4697,0.8,0.1,-0.8,0.8,5.2,8.1,0
30,4783,0.1,0,-0.5,0.1,5.2,7.5,0
30,4870,0,0.5,0.4,0.8,5.1,8.3,0
30,4954,-0.1,-0.1,0.1,0.2,5.2,7.9,0
31,38,-0.1,0,-0.4,0.3,5.3,7.6,0
31,123,0,0,0.7,0.4,5.3,8.8,0
31,207,0.1,-0.1,-0.2,0.4,5.2,8.2,0
31,292,0,0,0,0.6,5.3,8.1,0
31,376,0,-0.1,0.1,0.6,5.2,8.5,0
31,464,0,0,0,0.6,5.4,8.2,0
31,552,0,0,0.2,0.7,5.4,8.2,0
31,637,-0.1,0,-0.9,1,5.4,7.8,0
31,722,-0.2,0,-0.4,0.4,5.3,7.9,0
31,807,-0.1,-0.2,0.7,0.9,5,8.2,0
31,906,-0.4,0.3,0.9,0.8,5.4,9.4,0
31,1002,0.2,0.1,0.3,0.5,5,9.2,0
31,1087,-0.1,0,-0.3,0.4,5.1,8.5,0
31,1174,0,0,0.3,0.5,5.1,8.7,0
31,1258,0,-0.1,-0.1,0.6,5.1,7.9,0
31,1343,-0.2,0.1,-0.1,0.5,5.1,8.3,0
31,1427,0,0,0,0.7,5.1,8.2,0
31,1511,0,0.1,0.2,0.7,5.1,8.4,0
31,1596,0,0,-0.1,0.6,5.2,8.1,0
31,1681,-0.1,-0.1,0.1,0.4,5.1,8.3,0
31,1765,0.1,-0.1,-0.2,1,5.1,7.5,0
31,1853,0.2,-0.2,-0.1,1.1,5.1,8.1,0
31,1941,-0.2,-0.1,0,0.5,5.2,8.4,0
31,2026,0.3,0,0,1,5.1,8.4,0
31,2110,-0.1,0.1,0,0.1,5.2,8.6,0
31,2196,0.5,-0.4,-0.1,0.8,5.1,8.3,0
31,2281,-0.3,-0.1,-1.5,-0.5,5.4,7.2,0
31,2369,-0.2,0.1,1.3,1,5.2,9,0
31,2452,0,-0.1,-0.5,0.4,5.3,7.2,0
31,2536,0.1,-0.1,0,0.4,5.2,8.5,0
31,2621,-0.2,0.1,0.5,0.3,5.3,8.5,0
31,2707,0,0,-0.2,0.4,5.2,8,0
31,2794,0.1,0,0.4,0.5,5.2,8.4,0
31,2879,0,0,-0.1,0.4,5.2,8.1,0
31,2963,-0.1,0,0.1,0.4,5.2,8.3,0
31,3048,-0.1,0,0.1,0.3,5.2,8.4,0
31,3132,0.1,0,0,0.4,5.2,8.3,0
31,3217,0,0,0,0.3,5.2,8.1,0
31,3301,0,0,0,0.5,5.1,8.1,0
31,3392,-0.1,0.2,0.9,0.3,5.1,8.6,0
31,3476,0.1,-0.2,0.3,1.1,4.8,8.6,0
31,3561,-0.3,0.3,1.4,1.2,5.2,8.7,0
31,3645,-0.2,-0.1,-0.1,0.4,5.3,8,0
31,3732,0,-0.1,0.4,0.4,5,9.3,0
31,3818,-0.3,0.1,0.3,0.3,5.2,8.2,0
31,3902,0.1,-0.1,-0.8,0.5,5,8,0
31,3989,0.5,-0.1,0.5,0.5,5,8.7,0
31,4073,-0.1,0.1,-0.4,0.3,5.1,8,0
31,4160,0.2,0,-0.6,0.7,5.1,8,0
31,4247,0.1,-0.1,0.1,0.4,5,8.6,0
31,4331,0,-0.1,-0.1,0.6,4.9,8.1,0
31,4416,0,-0.1,0.1,0.5,4.9,8.4,0
31,4500,-0.2,0.1,0.8,0.4,4.9,9,0
31,4584,-0.1,0,0.1,0.3,4.8,8.5,0
31,4669,0,0,0,0.3,4.9,8.6,0
31,4753,0,0,0.1,0.3,4.8,8.6,0
31,4837,0,0,0.1,0.5,4.8,8.5,0
31,4925,0.1,0,-0.1,0.5,5,8.3,0
32,9,0,0,0,0.4,4.9,8.6,0
32,93,0.1,0,0,0.4,4.9,8.4,0
32,178,0,0,-0.1,0.4,4.9,8.3,0
32,262,0,0,0.1,0.4,4.9,8.5,0
32,347,0.1,0,-0.2,0.2,4.9,8.4,0
32,431,0,0,-0.1,0.4,4.9,8.3,0
32,521,0,0,0.1,0.4,4.9,8.5,0
32,605,-0.2,0.1,0,0.1,5.1,8.4,0
32,689,0,0,0.2,0.6,4.9,8.2,0
32,774,0.2,-0.1,-0.2,0.5,5,8.1,0
32,858,0.1,0,0,0.4,5,7.9,0
32,945,-0.2,0.2,0.1,0,5.2,8.2,0
32,1031,0,-0.1,0,0,5.1,8.5,0
32,1115,-0.1,0,0.2,0,5.1,8.4,0
32,1200,0,0,0.1,0,5.1,8.2,0
32,1284,0,0.1,-0.5,0.7,5.1,8.1,0
32,1368,0,-0.1,-0.2,0.3,5.1,8.1,0
32,1453,-0.3,0.1,-0.2,0,5.3,8.5,0
32,1537,0.2,-0.1,0.2,0.5,5.1,8.2,0
32,1621,0.2,0,-0.2,0.4,5.2,8.9,0
32,1706,0.3,-0.1,-0.3,0.6,5.2,8.3,0
32,1792,-0.3,1,1.1,-0.1,5.3,9.3,0
32,1876,0.6,-0.3,1.1,0.5,5.1,9.2,0
32,1962,-2.3,0,1.8,-0.8,6.5,9,0
32,2048,-0.1,-0.4,0.4,0.2,5.4,9.1,0
32,2137,-0.3,0,0.4,-0.2,5.4,8.8,0
32,2221,-0.4,-0.1,0.3,-0.2,5.4,8.4,0
32,2305,-0.1,0,-0.2,-0.2,5.4,8.6,0
32,2390,0.2,-0.1,-0.2,0,5.2,7.8,0
32,2474,-0.1,0.1,0.2,-0.2,5.4,8.4,0
32,2559,0.4,-0.2,-0.6,0,5.4,6.4,0
32,2648,0.4,0.2,1.2,1.3,4.9,7.8,0
32,2745,0.1,0,-1.4,-0.8,5.7,5.5,0
32,2829,0,-0.3,-0.3,0,4.7,9.3,0
32,2917,0.3,0.4,0.4,-0.7,5.9,9.2,0
32,3001,0.4,-0.4,0.1,0.5,5.1,8.6,0
32,3085,0,0.1,-0.5,0.1,5.2,7.6,0
32,3170,-0.1,-0.1,0.1,0.3,5.1,8.2,0
32,3255,0.1,0,0.4,0.8,5.4,8.8,0
32,3339,-0.2,-0.4,0.9,0.3,5.2,9.1,0
32,3423,0.2,-0.1,-0.4,-0.5,5.5,7.6,0
32,3517,-0.5,0.8,0.2,-0.8,5.5,9.2,0
32,3603,-0.1,-0.2,0.9,0.2,4.7,8,0
32,3689,0,-0.2,-1,0,5.4,7,0
32,3775,-0.2,0.4,1.7,0,5.3,10.3,0
32,3860,0,0,-0.3,0.3,5.2,7.9,0
32,3945,-0.1,-0.1,-0.4,0.2,5.1,8.1,0
32,4029,-0.2,0.1,0.8,0,5.2,8.9,0
32,4121,0.1,-0.1,-0.3,0.2,5.1,8.1,0
32,4205,-0.1,0,0.3,0,5.2,8.4,0
32,4289,0.2,-0.1,0.3,0.3,5,8.5,0
32,4373,0,0,-0.1,0.1,5.1,8.2,0
32,4457,0,0,0,0.2,5.2,8.3,0
32,4542,-0.1,0,-0.1,0.1,5.2,8.2,0
32,4626,0,0,0.1,0.2,5.2,8.5,0
32,4710,0.1,0,0.6,0.5,5.1,8.1,0
32,4804,-0.5,0.4,2.1,0.3,5.8,9.1,0
32,4888,0,-0.1,0.4,0.4,5.2,7.6,0
32,4973,-0.9,0.4,2,-0.2,6,9.9,0
33,64,0,0,-0.1,-0.3,5.6,6.7,0
33,147,0.7,0.4,-0.5,0.5,4.7,7.8,0
33,231,-0.1,0,-0.2,0.2,5.3,7.6,0
33,315,0,0,0.2,0.1,5.1,8.7,0
33,399,-0.3,0,0.3,0.3,5.2,8.4,0
33,483,0.1,-0.1,-0.2,0.3,5.1,8.3,0
33,567,0.1,0,-0.3,0.3,5.1,7.8,0
33,652,0.2,0.1,0.4,0.7,5.2,8.6,0
33,741,0.4,-0.1,0,0.7,4.9,8.5,0
33,825,-0.3,0.1,0.8,-0.2,5,8.9,0
33,910,-0.3,0,0,0,5,8.3,0
33,994,0.1,0,-0.2,0.2,4.8,7.4,0
33,1078,0.3,0.4,0.9,1.3,5,7.9,0
33,1162,0.6,-0.1,-3.3,-0.7,4.9,8.4,0
33,1251,0.3,-0.3,0.3,0.6,4.9,9.1,0
33,1336,-0.2,0,0,-0.1,5.3,8.1,0
33,1420,-0.3,0.2,0.1,0,5.2,8.5,0
33,1505,-0.2,0,0.4,0,5,8.6,0
33,1589,0.1,0.2,0.9,0.1,5.3,9,0
33,1673,0.3,0,-0.2,0.6,5.4,8,0
33,1757,-0.1,0.3,-0.3,0.4,5.7,7.7,0
33,1841,0.6,-0.3,-0.7,1.5,5.2,7.1,0
33,1931,-0.9,-0.5,1.2,-0.9,5,10.1,0
33,2014,0.1,-0.5,2.1,0,4.5,10.8,0
33,2099,0.1,0.2,1.3,0.4,5.2,10,0
33,2184,0.3,1.5,-0.3,0.6,7,7.7,0
33,2267,0,-0.1,-2,0,5.4,5.7,0
33,2351,0.7,-2.3,-1.8,0.7,4.7,5,0
33,2436,0,-1,-0.4,0.8,5.4,7.1,0
33,2520,0.2,-0.8,-0.7,1.8,5.3,9,0
33,2608,-0.9,0.9,-0.6,-0.5,6,8.2,0
33,2694,-0.1,0,1.8,0.8,4.5,10.5,0
33,2778,0.4,-0.3,1,0.7,4.5,9.3,0
33,2862,-0.1,-0.3,1.1,0.5,4.1,9.4,0
33,2946,0.1,-0.3,0.1,0.4,4.2,8.9,0
33,3031,-0.2,0.2,-0.5,0.2,4.5,8.5,0
33,3121,-0.2,0.1,0.2,0.2,4.4,8.6,0
33,3210,-0.5,0,0,0.1,4.4,8.4,0
33,3297,0.4,0,-0.1,0.7,4.3,8.8,0
33,3384,0.1,0.3,-0.3,0.2,4.6,8.6,0
33,3470,0.1,0.3,0.7,0.4,4.5,9.5,0
33,3556,-0.3,0.2,0.6,0.1,4.2,9.6,0
33,3640,0.3,-0.3,-0.7,0.7,3.9,8.4,0
33,3725,0.1,0,-0.2,0.6,4,8.9,0
33,3810,0.3,0,0.6,0.6,3.9,8.8,0
33,3903,0.1,0.1,0.1,0.2,4.1,8.8,0
33,3988,-0.3,0.1,-1.2,0.8,4.3,7.7,0
33,4072,0.1,0.2,-0.6,0.2,3.8,7.9,0
33,4156,0.1,0,1.4,0.3,4.3,9.5,0
33,4243,0.2,0.1,0.1,0.3,4.4,8.6,0
33,4337,-0.7,0.5,1.1,-0.7,4.9,9.5,0
33,4422,-0.2,-0.1,0.2,0,4.4,9.1,0
33,4512,0,0.1,0.6,0.2,4.4,9,0
33,4596,0.4,0,0,0,4.4,9.4,0
33,4680,0.2,-0.1,-0.1,0.4,4.2,8,0
33,4765,-1,0.8,-0.4,-1.5,4.7,9,0
33,4850,0.3,0,-1,-0.1,4.5,7.4,0
33,4942,0.8,-0.2,0.1,0.9,4.3,8.6,0
34,28,-0.1,0.1,0,0.1,4.6,9,0
34,112,0.1,0,0.4,-0.1,4.3,8.3,0
34,196,0.1,0.2,1,0.3,4.7,7.9,0
34,281,0,0.2,0.7,0.2,4.2,8.8,0
34,366,-0.1,0.1,0.4,0.3,4.5,8.2,0
34,456,0.2,-0.3,-0.2,0,4.5,7.5,0
34,540,0.7,0.2,-0.7,0.4,3.9,7.8,0
34,628,0,0,-0.3,-0.9,4.6,9.7,0
34,720,0.1,-0.3,-0.5,0.1,4.2,8.7,0
34,805,0.3,0,-0.9,-0.1,4.7,7.2,0
34,888,0.7,0,-0.9,0.8,4,8.3,0
34,973,-0.6,0.6,0.9,-0.2,4.9,8.3,0
34,1065,0.1,0,0.5,0.1,4.5,9,0
34,1149,-0.1,0,0.1,0.1,4.4,9.2,0
34,1234,0,-0.1,0.4,-0.1,4.3,9.4,0
34,1318,0,0,-0.4,0,4.3,8.5,0
34,1403,1.1,-0.1,0.6,1.4,3.8,9.8,0
34,1489,-0.1,0.2,0.3,-0.2,4.4,8.6,0
34,1573,0.2,-0.1,0.2,0.3,4.1,9.1,0
34,1661,0.3,-0.1,0,0.3,4.3,8.8,0
34,1746,-0.5,0.2,0,-0.3,4.7,8.5,0
34,1834,-0.3,0.2,-0.5,0.2,4.8,8.1,0
34,1921,0.2,-0.1,0,0.6,4.4,8.5,0
34,2008,0.1,-0.3,0.3,0.6,4.2,9.2,0
34,2092,-0.4,0,0.1,0.1,4.7,8.6,0
34,2177,0,-0.1,0.6,0.7,4.3,9,0
34,2262,0,0.1,-0.1,0.8,4.7,8.4,0
34,2349,-0.1,0.2,-0.2,0.7,4.7,8.4,0
34,2434,-0.5,-0.4,-0.7,0.6,4.1,7.7,0
34,2518,0.5,-0.3,-0.6,1.9,4,8.8,0
34,2603,-0.1,0,1.3,1,3.6,10.4,0
34,2694,0.2,0.1,0.7,1.4,4,9.7,0
34,2781,-0.1,-0.2,-0.3,1.2,4.1,7.6,0
34,2870,-0.5,0.1,0.3,0.9,4.8,8.3,0
34,2955,0.2,0,-0.5,0.9,4.9,8.3,0
34,3043,0,0,0.2,0.8,4.9,8.9,0
34,3127,0.1,0,0.3,0.9,5.1,8.2,0
34,3212,0.1,0,-0.6,0.8,5.1,7.5,0
34,3296,0,-0.2,-0.4,0.7,5.1,7.9,0
34,3381,-0.5,0.1,-0.2,0.2,5.6,8,0
34,3465,-0.4,0.2,0.2,-0.1,5.8,8.3,0
34,3549,-0.7,0.3,-2.1,-0.1,5.9,5.9,0
34,3638,0.2,-0.1,1.2,0.3,5.6,9.9,0
34,3723,0,-0.1,0.5,0.1,5.7,8.4,0
34,3807,-0.6,-0.4,-4.6,1.6,5.9,4.9,0
34,3892,-0.1,-0.2,1.5,-0.1,5.5,8.2,0
34,3976,0.5,-0.1,0.4,0.4,5.4,9.1,0
34,4061,0,-0.1,-0.2,0,5.5,7.7,0
34,4149,0.8,0.1,-1.6,-0.3,5.3,9.8,0
34,4234,0,-0.4,1.6,0.3,5.2,9.3,0
34,4321,-0.1,-0.4,-0.5,0.2,5.5,9.1,0
34,4405,-0.1,-0.3,-0.4,0,5.2,7.7,0
34,4489,0.3,-0.2,1.6,0.4,5.2,9.6,0
34,4574,0.2,-0.2,0,0.1,5.3,8,0
34,4659,0.1,-0.3,-0.2,-0.1,5.4,9.1,0
34,4748,0.3,-0.2,0.4,0.5,5.3,8,0
34,4833,0.1,-0.2,-0.7,0.2,5.2,7.7,0
34,4919,-0.3,0,0.2,-0.4,5.6,8.2,0
35,66,0.1,-0.1,2.4,0.3,4.7,10.9,0
35,155,0.2,-0.3,1.4,0.3,4.9,8.5,0
35,239,0.7,0.3,-4.7,0.3,5,5.6,0
35,324,0,-0.2,1.5,0.1,5.1,9.5,0
35,409,0.3,-0.2,0,-0.3,5.2,5.7,0
35,492,0,0.1,1.7,-0.9,5,10.2,0
35,580,0.7,-0.2,1.7,0.5,5,9,0
35,664,-0.7,0.1,-5.6,-0.3,5.3,4.5,0
35,749,0.1,-0.2,3.2,-0.5,4.8,11.7,0
35,833,0.8,-0.4,-1.5,0.4,4.8,7.1,0
35,919,-0.1,-0.2,1.3,-0.2,4.9,8.8,0
35,1004,0.3,-0.2,-2,-0.2,5.3,7,0
35,1088,0.1,-0.2,1.4,0.1,4.9,9.3,0
35,1180,0.3,-0.1,-0.3,0.1,4.9,8,0
35,1264,-0.1,-0.2,1.2,-0.1,5.1,9,0
35,1349,0.2,-0.2,-0.8,-0.2,4.9,8.9,0
35,1433,0.1,0.1,-1.1,0.3,4.9,6.4,0
35,1517,0,-0.3,1.3,0,4.7,10.8,0
35,1602,0.3,-0.1,-1.4,0.2,4.9,6.7,0
35,1690,-0.3,-0.1,0.3,-0.5,5,8.9,0
35,1774,-0.1,0,0.1,0.1,5,8.5,0
35,1859,0.4,-0.2,-0.2,0.2,4.9,8,0
35,1944,0.1,-0.1,0.1,-0.3,5,8.7,0
35,2029,0.5,0.7,-1.4,-0.5,5.3,8.3,0
35,2113,0,-0.1,-0.1,-0.2,5,7.8,0
35,2202,-0.1,-0.1,-0.3,-0.3,4.9,9.2,0
35,2286,0.4,-0.1,0.5,0.2,4.8,8.4,0
35,2370,0.1,0,-2.5,-0.7,5.1,7,0
35,2455,-0.1,-0.1,1.1,-0.2,5,9.1,0
35,2540,0.4,-0.2,-0.4,0,4.8,8.2,0
35,2626,-0.2,0,2.5,-0.5,5,9.5,0
35,2709,-0.3,-0.1,-1.8,-0.5,5.3,7.5,0
35,2797,0.3,-0.2,1.7,-0.1,5,9.8,0
35,2882,-0.1,-0.3,-0.6,0,5,7.3,0
35,2966,-0.5,-0.1,0.9,-0.4,5,8.5,0
35,3051,0.1,-0.1,-0.2,-0.1,5,8,0
35,3135,-0.2,0,0,-0.5,5.1,8.5,0
35,3219,0.2,-0.1,0.1,0,5,8.4,0
35,3307,0,0.2,-0.4,-0.3,5,7.9,0
35,3393,0.1,0,0.2,0,5,8.7,0
35,3477,1.1,-0.2,-1.6,0,4.6,9.4,0
35,3561,0.3,-0.2,0.5,0.5,4.8,8.4,0
35,3645,0.1,0.1,-3.6,-0.5,4.8,7.1,0
35,3730,0,-0.1,1.9,0.1,4.7,10.6,0
35,3815,0.1,-0.2,-0.9,0,5.1,5.9,0
35,3918,-0.1,-0.2,2.3,-0.7,4.9,10.8,0
35,4006,-0.2,0.1,-4,0.2,4.9,5.3,0
35,4090,0,-0.1,2.2,-0.2,4.7,10,0
35,4175,-0.4,0.2,-4.3,-0.2,5.1,5.3,0
35,4259,-0.8,-0.4,3,-0.5,4.7,11.8,0
35,4343,0.6,-0.4,-1.4,0.5,4.8,7.3,0
35,4433,-0.4,-0.2,0,-0.4,4.8,8.4,0
35,4518,0.1,-0.1,0.2,-0.1,4.9,8.7,0
35,4602,-0.2,0,-1.8,0,4.6,6.4,0
35,4687,-0.2,-0.1,1.5,-0.6,5,9,0
35,4772,0.1,0,-0.3,-0.2,5,7.5,0
35,4857,-0.2,0,0.1,-0.4,5,8.6,0
35,4942,0.3,-0.1,1.2,-0.2,5.6,8.2,0
36,33,-0.1,-0.2,-1.2,-0.3,5,7.7,0
36,118,-0.2,0,0.5,-0.3,5,8.8,0
36,202,-0.3,-0.4,-1.5,1.6,5.5,7.3,0
36,287,0.2,-0.1,-0.2,0.2,5,8.1,0
36,374,0.3,-0.1,1.3,-0.3,5.1,11,0
36,459,0.6,-0.3,-0.7,0.8,4.7,7.9,0
36,544,-0.1,-0.1,-0.3,-0.1,4.9,7.7,0
36,629,-0.2,-0.4,-0.6,-0.3,5,10.2,0
36,713,0.1,-0.4,1,0.5,4.7,8.7,0
36,797,-0.9,-0.2,-4.7,0.5,5.2,5.5,0
36,887,-0.2,-0.3,1.6,0.2,4.7,9.4,0
36,974,0.1,-0.2,0.8,0,4.8,8.4,0
36,1059,-0.2,0,-3.5,-0.8,5,6,0
36,1143,0.2,-0.5,3.2,0.1,4.6,12.2,0
36,1228,0.2,-0.3,-0.5,0.2,4.8,7.2,0
36,1315,0.2,-0.2,-0.3,-0.4,4.6,10,0
36,1399,0,0,0,0.2,4.8,8.4,0
36,1484,-0.2,0.1,-0.2,0.1,4.9,6.9,0
36,1568,-0.9,-0.1,-2.7,0.5,5,5,0
36,1653,-1.3,-0.1,2.4,-0.6,4.9,9.1,0
36,1737,0.1,0.1,-0.8,0.1,4.6,7.5,0
36,1822,-0.2,-0.1,0.3,-0.2,5,9,0
36,1910,0.2,-0.2,0.3,0.1,4.7,8.5,0
36,1996,0.1,0,-0.2,0.1,5,7.9,0
36,2081,0,-0.2,0.5,0.2,4.8,9.1,0
36,2165,-0.2,-0.1,-0.4,-0.3,5.2,7.7,0
36,2249,-0.2,0,0,-0.3,5.3,8.3,0
36,2334,0.1,-0.1,0.3,0,5.1,8.6,0
36,2419,-0.1,0,-0.2,-0.2,5.2,8.1,0
36,2509,0,0,-0.1,-0.1,5.2,8.2,0
36,2594,0.2,-0.1,0.3,0,5.2,8.5,0
36,2678,0,-0.1,0,-0.4,5.3,8.6,0
36,2763,2,0.9,-1.9,-0.3,5.2,9.6,0
36,2847,0.2,0.2,0.4,0,5.4,8.5,0
36,2935,0.3,-0.2,-0.8,-0.1,5.2,7.1,0
36,3021,-0.1,0.1,0.2,-0.4,5.4,8.3,0
36,3105,0.2,-0.1,0.2,0,5.2,8.2,0
36,3189,0.1,-0.1,-0.3,-0.2,5.3,7.9,0
36,3274,-0.1,0.5,0.5,-0.3,5,8.8,0
36,3361,0.6,-0.4,0.2,0.3,5.1,8.2,0
36,3447,-0.1,0,0.2,-0.1,5.2,8.3,0
36,3531,0,0,0.3,0,5.2,8.5,0
36,3616,0,-0.1,1.8,0,5.1,11.3,0
36,3700,0.1,-0.1,0.4,0.2,5.2,8.3,0
36,3785,-0.8,-0.3,-0.4,-0.4,5.2,9,0
36,3871,0.3,-0.2,2.4,0.3,5,9.7,0
36,3955,0,-0.2,-0.9,-0.9,5.5,4.3,0
36,4041,-0.3,-0.1,2.3,-0.5,5.1,10.2,0
36,4125,0.4,-0.1,0.2,0.3,5.3,7.9,0
36,4210,-0.3,-0.1,-0.5,-0.4,5.2,8.3,0
36,4294,0.2,-0.1,0.9,0.1,5.1,9.1,0
36,4378,0.1,-0.3,-1.8,-0.3,4.9,7.6,0
36,4462,0.1,0.1,0.1,-0.1,5.3,7,0
36,4546,0.2,-0.3,2.3,0,4.9,10.9,0
36,4630,0.2,0,-1.1,0,5.3,7.2,0
36,4720,-0.3,0,-0.3,-0.3,5.2,8.3,0
36,4804,0.2,-0.1,0.3,0.1,5.1,8.4,0
36,4888,0.1,-0.1,-0.1,-0.2,5.2,8.2,0
36,4972,-0.1,0,-0.1,-0.2,5.2,8.1,0
37,56,0,0,0.5,-0.1,5.2,8.7,0
37,142,0.1,-0.1,-0.2,-0.1,5.2,7.8,0
37,228,0,0,0.6,-0.2,5.3,8.4,0
37,314,-0.2,0.2,0.2,-0.1,5.3,8.7,0
37,402,-0.2,-0.3,1.6,0.1,5.7,10.7,0
37,487,-0.1,-0.2,0.8,0,5.2,8.4,0
37,574,0.4,-0.3,-0.8,0.2,5.1,7.3,0
37,660,0,0,0.8,-0.2,5.2,8.8,0
37,744,0,-0.2,0,-0.2,5.3,7.9,0
37,828,0.1,-0.1,0.1,-0.1,5.2,8.5,0
37,913,0.2,-0.1,0.4,0,5.2,8.5,0
37,997,-1.5,-0.6,-3.1,1,5.9,5.4,0
37,1081,0.2,-0.2,2,0.6,5,9.5,0
37,1165,-0.7,-0.3,-4.7,1,5.5,4.6,0
37,1253,-0.6,-0.1,2,-0.4,5.1,10.5,0
37,1338,0,-0.3,-1,0.2,5.1,5.7,0
37,1424,-0.3,-0.2,2.3,-0.5,5.1,9.8,0
37,1508,0.3,0,0.5,0.2,5.2,8.6,0
37,1592,-0.1,-0.3,1,-0.9,5.1,10.4,0
37,1678,0.3,-0.2,1.3,-0.4,5.1,7.7,0
37,1762,0.5,0,-1.9,-0.1,5.1,6.3,0
37,1851,0,-0.1,2,0,5,11,0
37,1945,0.1,-0.1,-0.9,-0.6,5.3,5.8,0
37,2035,-0.4,-0.2,2.4,-0.5,4.9,11.7,0
37,2119,0.3,0.4,-0.7,0,5.2,7.3,0
37,2203,-0.2,-0.3,-0.6,-0.4,5.1,7.9,0
37,2288,-0.2,0.1,0.5,-0.4,5.4,8.5,0
37,2372,0.4,-0.2,0.1,0.4,4.9,8.3,0
37,2459,-0.1,-0.1,-0.2,-0.1,5.2,8,0
37,2544,-0.1,0,0.2,0,5.1,8.5,0
37,2629,0.1,-0.2,0,0,5.1,8.2,0
37,2713,0.1,-0.1,0.2,0,5.1,8.5,0
37,2797,-0.1,0.1,-1.1,-0.1,5.3,5.8,0
37,2884,0,-0.1,1.9,0,5.1,9.6,0
37,2973,-0.2,-0.3,-1,-0.2,5,8,0
37,3063,0.2,-0.1,1.3,0.4,5,9.3,0
37,3147,-0.3,0.1,-3,-0.5,5.1,5.7,0
37,3232,-0.5,-0.3,1.4,-0.2,5,9.8,0
37,3317,0.6,-0.1,0,0.3,5.5,7.2,0
37,3407,0.1,-0.3,0.8,-0.2,5,9.7,0
37,3490,-0.1,0.4,-1,-0.5,5.5,7.6,0
37,3574,0.3,-0.2,0.9,0.4,4.9,9.1,0
37,3658,0.1,-0.2,0.4,-0.4,4.9,7.7,0
37,3743,0.3,-0.6,0.1,-0.3,5.3,9.8,0
37,3830,-0.1,-0.2,-0.1,0.1,5,7.4,0
37,3914,-0.1,-0.2,-0.6,-0.1,5.1,7.8,0
37,4002,-0.3,0.1,0.2,-0.4,5.3,8.6,0
37,4087,0.5,-0.2,0.3,0.4,5.1,8.4,0
37,4171,0.7,0.2,-1.2,-0.9,5.1,7.7,0
37,4255,0.3,-0.2,1,0.1,4.7,9.4,0
37,4340,0.2,-0.2,0.4,0.2,5,9.1,0
37,4427,-0.9,0.1,-1,-0.7,4.9,6.1,0
37,4512,0.4,0,1.7,0.2,4.9,11.1,0
37,4596,0,-0.2,0.3,-1.1,5.6,4.6,0
37,4680,-0.3,-0.1,2.5,-1.2,5.1,12.1,0
37,4765,0.7,-0.2,-0.7,0.5,5.1,7.3,0
37,4850,0.1,-0.4,-0.8,0,5.1,7.2,0
37,4941,0,-0.1,0.7,-0.4,5.3,8.8,0
38,38,-0.1,0,0.3,0.6,6.3,7.5,0
38,123,-0.3,0,0.3,0.6,6.4,7.5,0
38,211,0.1,-0.1,0.5,0.7,6.2,7.7,0
38,296,-0.2,0,-0.1,0.3,6.4,7.2,0
38,385,0,-0.2,-0.5,0.8,6.2,6.6,0
38,476,0.2,0,0.4,0.7,6.4,7.6,0
38,563,0.1,-0.1,0.6,0.6,6.3,7.9,0
38,656,0.1,0,-0.2,0.7,6.3,7,0
38,741,-0.1,-0.1,-0.4,0.6,6.4,7.2,0
38,825,0.4,-0.3,0.4,0.8,6.2,7.4,0
38,910,-0.8,0,-0.8,-0.6,6.7,6.3,0
38,996,0.7,-0.3,0.2,1.1,6.2,7.3,0
38,1082,-0.1,-0.4,0.3,0.4,6.2,7.5,0
38,1175,-0.3,-0.1,0.5,0.5,6.4,7.4,0
38,1267,-0.3,-0.1,0.3,0.6,6.4,7.4,0
38,1355,0.1,0.1,0.2,1.2,6.6,7.3,0
38,1441,0.1,-0.3,0.4,0.9,6.1,7.1,0
38,1525,-0.5,0,0.3,0.2,6.6,7.2,0
38,1610,0.2,-0.1,0,0.7,6.5,7,0
38,1697,-0.2,0,0.2,0,6.8,7.1,0
38,1791,0.3,-0.2,0.3,0.7,6.6,7.4,0
38,1878,0.1,0.2,-0.2,0.5,6.8,6.7,0
38,1967,-1.4,0.4,0.7,-1.1,7.1,7.6,0
38,2060,0.1,0,-0.8,0.5,6.7,6.2,0
38,2145,-0.3,-0.3,0.3,0.1,6.4,7.3,0
38,2236,-0.2,-0.2,-0.1,0.2,6.6,6.8,0
38,2321,-0.2,-0.1,-0.2,0.4,6.6,6.7,0
38,2407,0.2,-0.2,0.2,0.6,6.5,7,0
38,2491,0.1,0,0.3,0.6,6.5,7.2,0
38,2577,-0.2,0.1,0.2,0.3,6.7,7.1,0
38,2662,0.2,0,-0.2,0.6,6.6,6.9,0
38,2746,-0.1,0.1,0.2,0.4,6.7,7.4,0
38,2839,0.6,0.3,-0.6,1.2,7.1,6.1,0
38,2927,0.2,-0.5,-0.1,0.7,6.6,6.9,0
38,3013,-0.1,-0.2,-0.1,0.1,6.8,6.6,0
38,3098,-0.6,-0.3,-0.1,-0.6,6.8,6.5,0
38,3203,0,0,0.6,0.4,6.9,7.4,0
38,3288,-0.3,-0.2,-0.3,0,7.1,6.6,0
38,3375,-0.2,-0.1,0.4,0.5,6.8,7.3,0
38,3462,0.4,-0.2,0.1,1,6.7,6.9,0
38,3552,-0.1,-0.1,-0.2,0.6,6.7,6.6,0
38,3638,-0.2,0.1,1,0.5,6.9,7.7,0
38,3722,0,0,0.3,1.1,6.7,6.9,0
38,3807,0.5,-0.3,-0.3,1.3,6.3,6.6,0
38,3910,0.9,-0.5,0.1,1.6,6.1,6.9,0
38,3997,0,-0.1,-0.1,1,6.4,6.9,0
38,4087,-0.4,-0.2,0.3,0.5,6.3,7.4,0
38,4174,0,-0.2,0,0.9,6.4,7,0
38,4259,0,-0.2,-0.2,0.8,6.3,6.9,0
38,4345,-0.1,-0.1,0.2,0.8,6.4,7.2,0
38,4434,-0.1,-0.2,0.1,0.8,6.3,7.1,0
38,4519,-0.1,-0.2,0.7,0.6,6.5,7.7,0
38,4604,0,-0.2,-0.5,0.7,6.4,6.4,0
38,4695,-0.3,0,0.5,0.4,6.6,7.5,0
38,4780,0.3,-0.1,0.1,0.9,6.5,7.1,0
38,4865,-0.5,-0.2,0,0.2,6.4,6.8,0
38,4955,0.5,-0.2,-0.1,1.2,6.4,6.9,0
39,39,0.7,-0.3,-0.4,1.5,6.3,6.6,0
39,131,-0.1,-0.2,0.5,0.8,6.4,7.5,0
39,220,0.1,0.2,0.3,0.9,6.8,7.4,0
39,306,0.1,-0.1,0,0.9,6.5,6.9,0
39,391,-0.1,0,0.8,0.7,6.5,7.9,0
39,477,-0.3,0,-0.1,0.7,6.5,6.8,0
39,570,-0.3,0.5,1,0.5,7,8,0
39,657,0,-0.2,-0.3,0.8,6.4,6.8,0
39,744,-0.2,0,-0.1,0.6,6.5,7,0
39,836,-0.6,0.3,0.5,0.5,6.6,7.7,0
39,922,-0.2,0.1,-0.1,0.8,6.6,6.9,0
39,1006,0.2,-0.1,0.6,1.1,6.4,7.7,0
39,1092,-0.1,-0.2,-0.2,1,6.4,6.9,0
39,1180,-0.2,0,0.2,0.7,6.5,7.2,0
39,1267,0,0,0.2,1,6.5,7.3,0
39,1353,0.2,-0.2,-0.3,1.2,6.3,6.8,0
39,1440,-0.1,0,0.5,1,6.6,7.5,0
39,1533,0,-0.2,-0.3,1.1,6.3,6.9,0
39,1619,0.1,0,0.1,1.3,6.5,7.1,0
39,1706,0,-0.2,-0.1,1.2,6.3,7,0
39,1792,0,-0.1,0.1,1.2,6.2,7.3,0
39,1878,0,-0.1,-0.2,1.2,6.3,7,0
39,1969,-0.4,0.1,-0.3,0.6,6.4,6.6,0
39,2056,0.2,-0.2,-0.2,1.5,6.2,6.9,0
39,2141,0.1,0,-0.3,1.2,6.3,6.9,0
39,2228,-0.1,-0.1,-0.1,1,6.3,7,0
39,2313,0,-0.1,0.3,1,6.3,7.5,0
39,2401,0,0,0,1,6.4,7.1,0
39,2487,-0.2,0,0.1,0.8,6.4,7.2,0
39,2573,0,0,0.2,1,6.4,7.4,0
39,2661,-0.2,0.1,0.2,0.8,6.5,7.3,0
39,2754,-0.8,0.4,-0.2,0,6.8,7,0
39,2839,0,-0.1,0.7,1.1,6.3,7.7,0
39,2925,0.6,-0.5,-0.3,1.7,5.8,7,0
39,3016,0.2,-0.2,0.2,1.3,6.2,7.4,0
39,3101,-0.2,0,0.4,0.7,6.5,7.7,0
39,3187,-0.4,0,-0.1,0.5,6.5,6.9,0
39,3272,0.3,-0.5,-0.1,1,6.1,7,0
39,3357,0.1,-0.1,-0.1,0.8,6.4,6.9,0
39,3442,-0.3,0.2,0,0.3,6.7,7.2,0
39,3527,-0.1,-0.1,-0.2,0.5,6.5,6.9,0
39,3621,0.1,-0.1,0.5,0.8,6.5,7.5,0
39,3707,0,0,-0.2,0.6,6.6,6.7,0
39,3792,0,0,-0.4,0.6,6.6,6.8,0
39,3882,-0.1,-0.1,-0.1,0.5,6.4,7,0
39,3968,0.1,-0.2,0.2,0.7,6.4,7.3,0
39,4053,0,-0.1,0.3,0.7,6.5,7.4,0
39,4139,0,-0.1,-0.3,0.7,6.5,6.8,0
39,4228,0,-0.1,0.1,0.6,6.4,7.1,0
39,4318,-0.2,0.2,0.4,0.5,6.8,7.5,0
39,4404,0.3,-0.3,-0.2,0.9,6.3,6.8,0
39,4488,-0.8,0.5,0.8,-0.3,7.1,7.7,0
39,4576,-0.3,0.1,0,0.3,6.8,6.8,0
39,4668,-0.1,0.3,0.5,0.6,6.9,7.7,0
39,4754,-0.4,0,0.1,0.2,6.7,7.2,0
39,4839,0,0,0,0.7,6.6,6.9,0
39,4926,0.1,-0.2,0.1,0.9,6.3,7.1,0
40,71,-0.4,0,0,0.4,6.9,6.6,0
40,157,0.1,0.2,0.3,0.7,6.9,7.2,0
40,247,0,-0.3,-0.3,0.8,6.5,6.5,0
40,332,0,0,0.2,0.7,6.7,7.1,0
40,418,-0.1,0,0.3,0.6,6.7,7.3,0
40,502,0.1,0,-0.3,0.8,6.8,6.6,0
40,588,0,-0.2,0,0.8,6.6,6.9,0
40,679,0,0.6,1,0.7,7.3,7.7,0
40,766,-0.3,0.1,0.3,0.4,6.9,7.1,0
40,852,-0.3,-0.1,0.3,0.4,6.6,7.1,0
40,936,0.1,-0.2,0.4,0.8,6.7,7.3,0
40,1024,-0.8,0.2,1.6,0.2,6.8,8,0
40,1114,-0.2,0.3,-1.3,0.5,7.3,5.4,0
40,1200,0,-0.7,0.2,0.6,6.3,6.8,0
40,1285,-0.2,-0.2,0.6,0.1,6.9,7.2,0
40,1370,-0.4,0,0,0.2,6.9,6.8,0
40,1455,0.1,-0.2,0.7,0.6,6.6,7.4,0
40,1549,-0.2,-0.2,0,0.5,6.7,6.7,0
40,1635,0.1,-0.2,0.2,0.7,6.7,6.8,0
40,1720,0,0.3,0.5,0.6,7.3,7.3,0
40,1807,-0.4,0,0.5,0.4,6.8,7.1,0
40,1895,0.2,-0.4,-0.3,1.1,6.4,6.3,0
40,1981,-0.4,0,0.9,0.3,6.8,7.7,0
40,2069,-0.2,0,0.4,0.5,6.8,7.1,0
40,2156,0,0,0.4,0.7,6.8,7.4,0
40,2246,-0.5,-0.1,0,0.3,6.7,6.8,0
40,2331,0.1,-0.1,0.1,0.8,6.7,6.9,0
40,2415,0.3,-0.2,0.1,1,6.6,6.7,0
40,2499,-0.7,-0.2,0.4,0.1,6.7,7.2,0
40,2584,0.4,-0.2,-0.1,1.2,6.5,6.7,0
40,2669,0,0,0,0.9,6.5,6.8,0
40,2754,-0.3,-0.2,0.4,0.5,6.4,7.5,0
40,2844,-0.2,0,0.2,0.8,6.6,7.2,0
40,2934,0.3,-0.2,0,1.5,6.3,6.9,0
40,3026,0.1,-0.1,0.1,1.2,6.2,7.4,0
40,3115,0.2,0,-0.3,1.4,6.3,6.8,0
40,3202,-0.2,0,0,1,6.3,7.2,0
40,3287,-0.2,0,0.4,1,6.4,7.5,0
40,3375,0.1,0,-0.2,1.2,6.3,6.9,0
40,3461,-0.3,-0.1,0.2,0.8,6.3,7.4,0
40,3550,0.2,0,0,1.4,6.3,7.2,0
40,3636,0.1,-0.1,0.1,1.2,6.3,7.2,0
40,3722,-0.4,0,0.2,0.7,6.3,7.5,0
40,3814,0.1,-0.1,-0.2,1.2,6.3,7,0
40,3903,0.1,-0.1,0.1,1.2,6.3,7.3,0
40,3986,-0.3,-0.1,0.3,0.9,6.3,7.4,0
40,4075,0.2,0,0,1.2,6.3,7.1,0
40,4169,-0.2,0,0,0.9,6.4,7.3,0
40,4262,-0.1,-0.1,0.2,0.9,6.2,7.4,0
40,4348,0,0,0.1,1.1,6.3,7.3,0
40,4434,0.1,-0.1,-0.2,1.2,6.2,7,0
40,4518,-0.3,0,0.3,0.7,6.3,7.5,0
40,4604,0.1,-0.1,0.1,0.9,6.4,7.3,0
40,4697,0.1,-0.1,0.1,1,6.2,7.3,0
40,4781,0,-0.1,-0.3,1,6.3,6.9,0
40,4866,-0.1,-0.1,-0.1,0.7,6.4,7.2,0
40,4951,-0.1,-0.1,0.3,0.7,6.4,7.4,0
41,37,0.1,0,0,0.7,6.5,7.1,0
41,127,0,-0.1,-0.1,0.5,6.5,7,0
41,211,-0.2,0,0.3,0.3,6.5,7.4,0
41,296,0.1,0,-0.1,0.6,6.5,7,0
41,382,0,-0.1,0.2,0.5,6.4,7.3,0
41,466,-0.1,-0.1,0.1,0.4,6.4,7.2,0
41,556,0.2,0,0,0.7,6.5,7.3,0
41,648,0,-0.1,-0.3,0.5,6.4,6.8,0
41,732,0,-0.1,0.1,0.5,6.4,7.2,0
41,818,0.1,-0.1,-0.2,0.6,6.4,7,0
41,903,-0.1,0,0.1,0.4,6.5,7.2,0
41,998,0,0,-0.1,0.4,6.5,7.1,0
41,1084,0,-0.1,0.2,0.5,6.4,7.3,0
41,1171,-0.4,-0.1,-0.5,0.1,6.5,7,0
41,1267,0.1,0.1,0.6,0.3,6.6,7.7,0
41,1354,0,-0.2,-1.5,-0.1,7,5,0
41,1441,-0.2,0.1,0.8,0.2,6.7,7.9,0
41,1527,0.1,-0.3,-0.6,0.7,6.3,6.5,0
41,1612,0.2,0.1,0.7,0.5,6.5,8,0
41,1697,-0.3,-0.3,0,0.1,6.3,7.2,0
41,1785,0,-0.1,0,0.4,6.5,7.1,0
41,1871,0.5,-0.3,-0.7,1,6.4,6,0
41,1964,-0.1,-0.2,0.1,0.4,6.4,7.1,0
41,2056,0,-0.1,0.3,0.4,6.4,7.4,0
41,2146,-0.3,-0.1,-0.7,0.3,6.5,6.4,0
41,2232,0,-0.2,0.6,0.7,6.5,7.6,0
41,2318,0.1,-0.4,0.2,0.7,6.3,7.2,0
41,2406,0.1,0,0,0.7,6.6,7,0
41,2491,0,0,0.3,0.6,6.7,7.2,0
41,2578,-0.1,-0.1,0.1,0.6,6.6,7,0
41,2663,-0.2,-0.2,0.2,0.6,6.7,7.1,0
41,2746,0.1,0,0.3,0.7,6.7,7,0
41,2831,-0.1,-0.2,-0.4,0.6,6.5,6.5,0
41,2917,-0.2,-0.1,0.5,0.5,6.6,7.4,0
41,3020,-0.1,-0.1,0.2,0.6,6.5,7.1,0
41,3108,-0.3,0,-0.1,0.4,6.7,6.8,0
41,3194,0,0,0.2,0.6,6.8,7.1,0
41,3279,-0.4,0.1,0.6,0.3,6.9,7.6,0
41,3369,-0.3,0,-1,0.4,6.6,5.7,0
41,3459,0.3,-0.1,0.4,0.8,6.6,7.3,0
41,3544,0.2,-0.2,0.1,0.8,6.6,7.1,0
41,3630,0,-0.1,0,0.8,6.5,6.9,0
41,3715,-0.1,0,0.6,0.7,6.6,7.5,0
41,3801,-0.1,0,0,0.8,6.7,6.8,0
41,3889,0.1,0,0,0.9,6.6,6.9,0
41,3990,-0.1,0.1,0.3,0.8,6.8,7.2,0
41,4082,-0.4,0,0.8,0.4,6.6,7.6,0
41,4168,0.2,-0.1,-0.2,1,6.6,6.7,0
41,4258,-0.4,0.3,0.7,0.4,6.9,7.7,0
41,4347,-0.1,-0.2,-0.1,0.6,6.5,6.8,0
41,4433,0.2,0,-0.7,0.8,6.8,6.1,0
41,4521,-0.5,-0.2,0.5,-0.1,6.6,7.1,0
41,4607,0.5,-0.1,-0.8,1.1,6.6,6.2,0
41,4692,0,0,-0.2,0.5,6.7,6.7,0
41,4781,-0.2,0,0.1,0.4,6.7,6.9,0
41,4872,-0.1,-0.1,0,0.6,6.7,7,0
41,4960,0.2,0,0.1,0.7,6.8,7,0
42,17,0.2,0,0.2,1.4,6.6,7.2,0
42,103,-0.4,0,0.4,1,6.8,8.4,0
42,190,-0.1,-1,-0.3,1.1,5.9,6.8,0
42,274,0,-0.6,-1,1,6.2,6.2,0
42,360,-0.1,-0.7,-0.2,1,6.1,7,0
42,447,0.1,0.2,0,1.3,6.7,7.2,0
42,538,0.4,0.5,-0.4,1.9,6.9,6.9,0
42,623,0.2,0.4,-0.1,1.4,6.9,7.2,0
42,709,0.1,0.4,0.9,1.6,6.8,8,0
42,798,-0.5,0.6,0.4,1,7.2,7.4,0
42,886,-0.2,0,0.6,1.3,6.7,7.5,0
42,971,0.6,-0.1,-1.1,2.3,6.9,5.5,0
42,1065,-0.3,-0.3,-0.1,1.1,6.8,6.5,0
42,1155,0.3,-0.3,-0.5,1.6,6.9,5.9,0
42,1244,0.2,-0.3,0.3,1.7,6.8,6.8,0
42,1331,-0.4,-0.1,0.3,1.1,7,6.8,0
42,1417,0.3,-0.1,-0.6,2.1,7.1,5.5,0
42,1505,0.5,-0.1,-0.5,2,7,6,0
42,1589,0,-0.1,0.3,1.6,7,6.6,0
42,1676,-0.1,0.1,-0.2,1.3,7.1,6.4,0
42,1760,-0.5,0,0,1,7.2,6.4,0
42,1844,0.4,-0.4,0,1.8,6.8,6.4,0
42,1934,0.3,-0.3,0.1,1.9,7,6.2,0
42,2019,-0.1,-0.3,-0.1,1.3,6.9,6.4,0
42,2106,-0.3,0,0.5,1.1,7.2,6.9,0
42,2193,-0.5,0.3,0.3,0.6,7.3,7.2,0
42,2280,-0.4,-0.1,0.6,1.2,6.8,7.1,0
42,2368,-0.5,-0.1,0,1,6.9,6.4,0
42,2454,-0.1,-0.5,0,1.2,6.5,6.8,0
42,2541,0,-0.2,-0.1,1.4,6.9,6.2,0
42,2626,0,0,-0.1,1.3,7,6.4,0
42,2716,0.3,0.2,-0.4,1.6,7.2,5.9,0
42,2805,0.4,-0.2,0.5,1.5,6.6,6.3,0
42,2894,0.4,0,0.1,1.6,7,6.6,0
42,2978,0.4,-0.2,0.2,1.8,6.7,6.7,0
42,3066,0.3,0.2,-1.1,1.6,7.2,5.5,0
42,3155,-0.2,0,-0.5,1.2,6.9,6.3,0
42,3244,-0.2,-0.1,0.1,1.3,6.7,6.8,0
42,3330,-0.3,-0.1,0,1.1,6.7,6.8,0
42,3424,-0.2,0,-0.1,1.4,6.6,6.8,0
42,3511,-0.2,-0.1,0.4,1.4,6.5,7.3,0
42,3598,0,-0.1,0.1,1.6,6.5,7.1,0
42,3683,-0.1,0,0.3,1.4,6.5,7.4,0
42,3774,-0.8,0.4,0.2,0.9,6.9,7.2,0
42,3862,0.1,0.4,-0.3,1.6,7.2,6.6,0
42,3964,0.6,-0.1,-0.8,2.3,6.7,6.2,0
42,4049,0.7,-0.7,0,2.3,6.2,6.8,0
42,4136,-0.7,-0.3,1,0.5,6.5,7.5,0
42,4222,-1.2,-0.3,1.5,0.3,6.3,8.5,0
42,4307,-1.1,-0.1,-0.5,0.3,6.8,6.2,0
42,4394,-1.2,-0.3,0.3,0.2,6.6,6.9,0
42,4482,-1.4,-1.3,0.2,0,5.8,6.7,0
42,4568,-0.4,-1.2,-0.6,0.9,6,5.7,0
42,4654,0.8,0.6,0.8,1.7,7.6,7.9,0
42,4742,-0.2,0.3,-0.1,2,7.1,6,0
42,4832,-0.3,-0.1,0.5,1.4,6.8,7,0
42,4918,0.1,-0.6,-0.2,1.5,6.4,6.4,0
43,53,-0.4,-0.5,1.4,-0.4,6.3,8,0
43,139,-0.6,-0.1,0.6,-0.4,6.4,7.7,0
43,229,-0.5,0.3,-0.9,-0.4,7,6.1,0
43,314,0,0,0.1,0.2,6.9,7.1,0
43,400,-0.7,-0.3,0,-0.2,6.8,6.7,0
43,491,0.2,-0.5,0.8,0.8,6.6,7,0
43,581,0,-0.7,-0.1,0.1,6.4,6.4,0
43,666,0.5,-0.4,-0.2,0.6,6.6,6.5,0
43,751,-0.7,-0.1,0.7,-0.8,6.9,7.5,0
43,837,-0.4,0,0.7,-0.5,7,7.2,0
43,930,0.2,-0.3,0.4,0.2,6.8,7,0
43,1016,-0.5,0.3,1,-0.5,7.3,7.5,0
43,1101,-0.9,-0.2,0.8,-0.9,6.9,7.3,0
43,1186,0,-0.4,-0.2,0,6.8,6.4,0
43,1271,0.1,-0.4,0.2,0.1,6.8,6.9,0
43,1364,0.2,-0.5,0,0.3,6.7,6.6,0
43,1450,0.1,-0.2,-0.4,0.2,6.9,6.2,0
43,1536,-0.1,0,-0.1,0,7.1,6.2,0
43,1624,0,-0.5,-0.5,-0.3,6.8,6.3,0
43,1711,0.1,-0.3,0.1,0.1,6.7,6.7,0
43,1798,0,-0.3,0.1,0,6.8,6.6,0
43,1883,-0.1,-0.3,0,-0.1,6.8,6.6,0
43,1970,0,-0.3,0.1,0.1,6.8,6.7,0
43,2059,0.1,-0.2,-0.2,0.2,6.9,6.3,0
43,2144,-0.2,0,0.6,-0.2,7.1,7.3,0
43,2229,0,-0.3,-0.1,0,6.7,6.5,0
43,2314,0,0.1,0.3,0,7.1,6.9,0
43,2406,-0.3,0.2,0.2,-0.4,7.2,7,0
43,2495,-0.2,-0.1,0,0,6.8,6.7,0
43,2580,0.1,-0.3,0.1,0.3,6.5,6.8,0
43,2669,0.1,0.1,0.1,0.6,6.9,7,0
43,2756,0.3,0.1,-0.4,1.2,6.6,6.6,0
43,2843,0.4,-0.1,-0.4,1.2,6.4,6.6,0
43,2942,0.5,-0.5,-0.2,1.2,6,6.8,0
43,3032,0.6,-0.2,-0.4,1.4,6.2,6.7,0
43,3121,0.4,0,-0.6,1,6.4,6.5,0
43,3214,0.2,-0.2,0.3,0.9,6.1,7.7,0
43,3298,0.4,-0.4,0.9,1.3,5.8,8,0
43,3387,0.2,-0.1,0.7,0.9,6.2,7.8,0
43,3478,-0.3,0.4,-0.5,0.8,6.5,6.7,0
43,3564,-0.6,0.1,1.3,0.2,6.3,8.5,0
43,3649,-0.4,0,-0.2,0.3,6.4,7,0
43,3733,-0.4,0.2,-0.4,0.3,6.4,6.7,0
43,3820,-0.2,0,0,0.6,6.2,7.2,0
43,3906,0.5,-0.4,0.2,1.3,5.7,7.7,0
43,4008,0.1,-0.2,0.3,1,5.9,7.8,0
43,4099,0.1,-0.2,0.2,1.2,5.7,7.6,0
43,4191,0.3,-0.2,0.1,1.1,5.8,7.6,0
43,4276,-0.1,0,0.2,0.6,6,7.8,0
43,4361,-0.4,0,-0.2,0.4,6,7.3,0
43,4451,-0.2,0,0.1,0.6,6,7.6,0
43,4531,-0.1,0,0.2,0.7,6,7.8,0
43,4617,0.1,-0.1,-0.1,0.8,6,7.4,0
43,4702,0.2,-0.2,0.1,1,5.8,7.6,0
43,4801,0.1,-0.1,0.2,0.8,5.9,7.7,0
43,4892,-0.2,-0.2,0,0.1,6.1,7.7,0
43,4977,-0.1,-0.1,-0.2,0.4,6.1,7.3,0
44,67,-0.1,0.1,0.4,0.3,6.5,7.7,0
44,159,-0.2,-0.1,-0.4,0.3,6.3,6.8,0
44,245,0,0.1,0.7,0.6,6.4,7.9,0
44,330,-0.1,-0.1,0.3,0.4,6.3,7.6,0
44,414,0,0,-0.7,0.5,6.4,6.5,0
44,498,0.1,-0.3,-0.1,0.6,6.2,7,0
44,585,0.2,-0.3,0,0.7,6.2,7.1,0
44,674,-0.1,-0.1,0,0.3,6.5,7.2,0
44,759,-0.4,0.1,0.1,-0.1,6.6,7.2,0
44,843,-0.3,-0.5,-0.3,0,6.2,6.9,0
44,929,-0.1,-0.1,0.2,0.2,6.4,7.3,0
44,1018,0.2,-0.6,0.3,0.4,5.9,7.4,0
44,1105,0,0,0.1,0.3,6.4,6.9,0
44,1190,-0.3,0,0.2,0,6.6,7.3,0
44,1278,0,-0.1,0.1,0.3,6.4,7,0
44,1363,0,0,0.1,0.1,6.6,7.1,0
44,1450,0,0,0.3,0.2,6.6,7.3,0
44,1537,0,0.1,0.9,0.2,6.6,7.8,0
44,1622,-0.1,0,-0.4,0.2,6.6,6.3,0
44,1707,0,0,0,0.2,6.6,7,0
44,1796,0,0,-0.8,0.1,6.6,6.4,0
44,1885,0.1,-0.3,-0.3,0.1,6.4,6.7,0
44,1980,0.2,-0.3,-0.4,0.3,6.4,6.7,0
44,2075,0.3,-0.2,0.2,0.6,6.3,7.3,0
44,2163,0.5,-0.1,0.3,0.9,6.4,7.4,0
44,2248,0.3,0.3,-0.8,0.9,6.7,6.3,0
44,2333,-0.3,0.1,-0.3,0.6,6.4,6.9,0
44,2426,0.1,-0.2,0.3,0.9,6.1,7.5,0
44,2511,-0.1,-0.2,0.3,0.8,6,7.5,0
44,2596,0,-0.2,0,0.9,6.1,7.1,0
44,2681,-0.2,-0.1,0.2,0.8,6.1,7.5,0
44,2766,-0.2,0,0.1,0.9,6.1,7.4,0
44,2858,-0.2,0,-0.3,0.4,6.2,7.2,0
44,2942,0.3,-0.2,-0.2,1.2,6,7.2,0
44,3027,0.5,-0.2,0.6,1.4,5.8,7.9,0
44,3112,0.4,-0.1,0.1,1.2,6.1,7.4,0
44,3197,0.6,-0.6,-1,1.3,5.6,6.4,0
44,3283,0.2,-0.2,0.4,0.7,5.9,7.6,0
44,3371,-0.7,0.2,0.2,-0.4,6.4,7.4,0
44,3478,-0.3,0,0.2,-0.1,6.4,7.5,0
44,3569,0.4,-0.4,-0.2,0.7,6,7.3,0
44,3662,0.1,-0.3,0.1,0.5,6,7.3,0
44,3748,0,0.3,-0.8,0.4,6.5,6.6,0
44,3832,-0.2,-0.1,0.1,0.2,6.1,7.4,0
44,3916,0,-0.2,-0.9,0.4,6,6.6,0
44,4006,-0.4,0,0.5,-0.1,6.2,7.7,0
44,4094,0.1,-0.2,-0.4,0.5,6.1,6.9,0
44,4178,-0.2,0,0.3,0.3,6.2,7.7,0
44,4263,0.2,-0.1,0.3,0.6,6,7.7,0
44,4354,-0.2,-0.2,-0.3,0.4,6,7.2,0
44,4444,-0.1,0,0.6,0.4,6.1,8,0
44,4529,-0.1,0,0.4,0.4,6.2,7.7,0
44,4618,0,-0.1,-0.2,0.5,6.1,7.1,0
44,4711,0.2,0,0.2,0.7,6.1,7.6,0
44,4797,0.1,-0.4,-0.1,0.6,5.7,7.4,0
44,4882,-0.3,0.1,-0.3,0.2,6.2,7.1,0
44,4966,-0.2,0.1,0.5,0.2,6.3,7.9,0
45,57,0.1,-0.2,0,0.5,5.9,7.4,0
45,145,0.1,-0.2,0,0.5,6,7.4,0
45,228,0,-0.2,0.4,0.5,5.9,7.9,0
45,313,0.4,-0.2,0.2,0.8,5.9,7.6,0
45,398,1.6,-0.6,0.9,1.9,5.5,8.1,0
45,485,1.2,-0.1,-0.3,1.3,6.1,6.9,0
45,570,0.3,0.5,0.7,0.6,6.6,8.4,0
45,657,-0.3,-0.1,-0.2,0.3,5.7,7.1,0
45,741,-1.8,0.1,-0.1,-1.5,6.1,7.7,0
45,826,-0.3,-1.1,-0.2,-0.2,5.1,7,0
45,920,-0.7,-1.2,-0.9,-0.8,5,6.3,0
45,1005,0.3,0.8,-0.2,0.4,6.8,8,0
45,1093,-0.6,0,-0.6,0.3,5.8,6.7,0
45,1177,-1.5,-0.3,1.2,-1.8,5.8,8.5,0
45,1264,-0.2,0.3,1.7,-0.4,6.2,9.3,0
45,1357,-1.1,0.1,0.7,-1.2,6.1,8.7,0
45,1443,0.2,0,-1.2,-0.2,6.2,6.3,0
45,1528,0,-0.1,0.7,-0.4,6,7.9,0
45,1613,-0.2,-0.1,0.4,-0.8,6,7.9,0
45,1699,-0.8,-0.7,0,-1.4,5.2,7.5,0
45,1791,-1.2,-0.2,0.9,-1.3,4.9,8.8,0
45,1877,-0.3,0.1,0.3,-0.3,5.7,8.3,0
45,1973,-0.2,-0.4,0.2,-0.4,5.3,7.7,0
45,2058,-0.1,0,1,-0.3,5.7,8.7,0
45,2144,-0.7,-0.1,-1.1,-0.5,5.5,6.7,0
45,2228,-0.4,-0.1,1.3,-0.4,5.4,9.2,0
45,2315,-0.2,-0.8,0.5,-0.4,4.7,8.3,0
45,2402,-0.2,0,0.6,-0.3,5.4,8.6,0
45,2490,-0.1,-0.8,-0.9,-0.3,5,7,0
45,2577,0.8,-0.8,-0.3,0.5,5.1,7.6,0
45,2662,0.2,-0.5,0.3,0,5.4,7.9,0
45,2747,-0.9,-0.4,0.2,-1.2,5.7,7.6,0
45,2837,-0.6,-0.4,-0.1,-0.4,5.6,7.4,0
45,2930,-0.2,-0.7,-0.7,0.1,5.2,6.9,0
45,3020,0.6,-0.3,0.5,1.3,5.5,7.7,0
45,3106,-1,-0.2,-0.1,-0.7,5.5,7.5,0
45,3192,0.1,-0.3,0.7,0.3,5.3,8.5,0
45,3278,0.1,0.6,0.6,0.3,6.2,8.1,0
45,3367,-0.1,-0.2,0.7,0.2,5.5,8.3,0
45,3455,-0.7,-0.6,0.3,-0.3,5.3,7.9,0
45,3540,-0.9,0,0.2,-0.6,6,7.7,0
45,3626,0.2,-0.5,0.1,0.3,5.7,7.5,0
45,3711,0,-0.1,0.4,0.1,6.1,7.8,0
45,3802,-0.3,-0.4,-0.1,-0.2,5.9,7.1,0
45,3889,-0.3,0,0.1,-0.2,6.2,7.5,0
45,3979,0.1,-0.1,0.5,0.1,6.2,7.6,0
45,4063,-1,0,0,-1.3,6.6,6.9,0
45,4153,0.7,-0.2,-0.4,1.2,6.1,7.1,0
45,4238,-0.3,-0.3,1.1,-0.4,6,8.5,0
45,4328,-0.9,0.4,-0.6,-0.7,6.9,6.6,0
45,4413,-0.2,-0.4,0,0.1,6,7.2,0
45,4497,-0.3,0.2,0.4,0,6.7,7.6,0
45,4588,-0.9,0.2,0.4,-0.6,6.7,7.5,0
45,4672,-0.3,-0.1,0.2,0.1,6.5,7,0
45,4757,0.2,-0.1,-0.2,0.5,6.7,6.7,0
45,4842,0.1,-0.2,0.1,0.3,6.5,7,0
45,4927,-0.1,0,0.4,0.2,6.8,7.3,0
46,12,-0.2,-0.2,-0.2,0.1,6.6,6.6,0
46,103,-0.1,0.1,1,0.1,6.9,7.7,0
46,191,-0.1,-0.2,0.7,0.2,6.5,7.6,0
46,275,0,0.1,-0.2,0.3,6.7,6.8,0
46,359,0,-0.1,-0.1,0.3,6.5,6.8,0
46,445,-0.3,0,0.3,-0.1,6.6,7.3,0
46,536,-0.1,-0.1,0,0.2,6.5,7,0
46,624,0.3,-0.1,0.1,0.4,6.4,7.2,0
46,710,0.3,-0.1,0.1,0.5,6.4,7.3,0
46,796,-0.1,-0.1,0.2,0.2,6.4,7.3,0
46,880,-0.1,0,0.2,0.1,6.5,7.3,0
46,972,0.1,-0.1,-0.1,0.2,6.4,7,0
46,1059,-0.4,0.3,0.6,-0.3,6.8,7.8,0
46,1146,-0.4,0,0.1,-0.5,6.6,7.2,0
46,1233,0.2,0.1,0.2,0.1,6.9,7.2,0
46,1317,-0.5,-0.1,-1,-0.7,6.8,5.7,0
46,1404,0.6,0,0.2,0.3,7,7,0
46,1488,-0.6,0.1,-0.2,-0.6,6.8,6.7,0
46,1574,0.2,-0.1,0.7,0.2,6.7,7.3,0
46,1665,-0.1,-0.1,0.2,-0.1,6.7,7,0
46,1756,-0.2,0.1,-0.1,-0.3,6.8,6.9,0
46,1842,0,-0.2,0,0,6.7,6.9,0
46,1926,0.3,-0.2,0.1,0.4,6.7,6.8,0
46,2011,-0.2,-0.4,0.5,-0.1,6.6,7.2,0
46,2104,-0.3,0.1,0.1,-0.1,7,6.9,0
46,2188,0.1,0,-0.2,0.1,6.8,6.7,0
46,2281,-0.1,-0.2,0.2,0,6.7,6.9,0
46,2374,0.1,0.2,0.2,0.1,6.9,7,0
46,2460,-0.4,0,-0.7,-0.4,7,6.2,0
46,2543,0.6,-0.2,-0.2,0.5,6.8,6.4,0
46,2629,-0.2,-0.3,0.3,0.1,6.8,6.9,0
46,2722,-0.6,0,0.3,-0.4,7,6.9,0
46,2807,0.3,-0.3,-0.3,0.3,6.8,6.3,0
46,2894,0.5,-0.2,0.2,0.5,6.8,6.8,0
46,2979,0,-0.1,0.3,0.1,6.8,7,0
46,3069,-0.1,0.1,0.2,-0.1,7,6.8,0
46,3155,-0.1,0,0.2,0,6.9,6.9,0
46,3239,-0.1,-0.1,0.2,0,6.8,6.9,0
46,3324,-0.2,0,0.1,-0.2,6.9,6.8,0
46,3413,-0.1,0,-0.2,0,7,6.4,0
46,3499,0,-0.1,0,0.1,6.9,6.6,0
46,3587,0.1,-0.1,0,0.2,6.9,6.7,0
46,3673,0.3,0,-1,0.4,7,5.8,0
46,3759,0,-0.2,-0.1,0.1,6.8,6.6,0
46,3843,-0.1,0.1,-0.1,0,6.9,6.6,0
46,3933,-0.1,0,0.1,0.1,6.8,6.8,0
46,4020,0.1,0,0.2,0.1,6.8,6.9,0
46,4106,-0.1,-0.1,0.1,0,6.8,6.9,0
46,4194,-0.1,0,0.1,0.1,6.8,6.9,0
46,4283,-0.1,0,0.3,0.1,6.7,7.1,0
46,4368,0.1,0,0,0.2,6.8,6.8,0
46,4454,-0.2,-0.1,-0.2,0,6.7,6.7,0
46,4541,-0.6,0.2,0.4,-0.4,6.9,7.3,0
46,4627,0.1,-0.2,-0.2,0.3,6.5,6.8,0
46,4716,-0.2,0.2,-0.1,0.1,6.8,6.9,0
46,4807,-0.2,-0.1,0.3,0,6.6,7.2,0
46,4891,0,-0.1,0.2,0.2,6.6,7.1,0
46,4979,0.2,-0.2,0.2,0.3,6.5,7.1,0
47,69,-0.2,0,-0.1,0,6.8,6.8,0
47,154,0,-0.1,0,0.4,6.6,6.8,0
47,239,-0.1,0.2,0.4,0.1,6.9,7.4,0
47,324,-0.3,-0.1,0.1,-0.4,7,6.8,0
47,410,0.6,-0.2,-0.3,0.5,6.7,6.5,0
47,500,0.3,-0.3,0,0.5,6.5,6.8,0
47,585,-0.3,0,0.1,-0.5,6.7,7.1,0
47,674,0.3,-0.4,0.2,0.3,6.6,6.9,0
47,759,0.6,-0.3,0.6,0.8,6.6,7.3,0
47,848,-0.7,0.1,0.2,-0.6,7.1,6.5,0
47,938,-0.1,-0.1,-0.1,0.1,7,6.5,0
47,1022,0,0,0.2,0.3,7.1,6.6,0
47,1108,-0.1,0.3,0,0.6,6.9,6.5,0
47,1194,-0.4,-0.1,0.7,0,6.8,7.4,0
47,1282,-0.1,0,0.2,0.2,6.9,6.9,0
47,1369,0,0,-0.3,0.4,6.9,6.5,0
47,1454,0,-0.1,0.2,0.3,6.8,6.9,0
47,1539,0.1,-0.1,0.3,0.4,6.8,6.9,0
47,1625,-0.2,0,-0.3,0.3,6.8,6.6,0
47,1715,-0.2,0,-0.2,0,6.9,6.5,0
47,1803,-0.1,-0.2,-0.3,0.2,6.7,6.5,0
47,1888,-0.3,0.4,1,-0.1,7.2,7.8,0
47,1986,-0.2,-0.1,0,0,6.8,6.7,0
47,2075,-0.3,0,0.4,0.3,6.7,7.2,0
47,2161,0,-0.1,-0.1,0.6,6.6,6.7,0
47,2248,0.1,-0.1,0,0.7,6.5,6.9,0
47,2333,0,-0.1,0,0.6,6.5,6.9,0
47,2418,-0.1,-0.1,0.2,0.4,6.6,7.2,0
47,2502,0,0,0.2,0.5,6.6,7.2,0
47,2588,-0.1,-0.1,0.3,0.4,6.5,7.3,0
47,2675,0.1,-0.1,0.1,0.6,6.5,7.1,0
47,2760,-0.1,0,0,0.5,6.6,7,0
47,2850,-0.1,0.1,0.1,0.4,6.7,7.1,0
47,2936,-0.1,0,-0.1,0.4,6.6,7,0
47,3024,0.1,-0.1,0,0.5,6.5,7,0
47,3111,-0.1,-0.1,0,0.4,6.5,7,0
47,3198,0,0,-0.1,0.5,6.6,6.9,0
47,3295,-0.1,0,-0.1,0.4,6.6,6.9,0
47,3382,-0.2,0,0.1,0.3,6.6,7.1,0
47,3468,0,-0.1,0,0.4,6.5,7,0
47,3552,0,-0.1,0,0.4,6.6,7,0
47,3636,-0.3,0,0.1,0.2,6.5,7.2,0
47,3721,0.3,-0.1,0.3,0.6,6.4,7.4,0
47,3807,0.1,-0.1,-0.4,0.6,6.4,6.8,0
47,3898,-0.2,0.1,0.2,0.1,6.6,7.3,0
47,3983,0.2,-0.1,0,0.4,6.3,7.1,0
47,4074,-0.2,0,-0.1,-0.2,6.7,6.9,0
47,4167,-0.6,0,-0.3,-0.7,6.7,6.5,0
47,4254,0.4,-0.1,0.2,0,6.7,7.1,0
47,4338,0.1,0.2,0.5,0,7,7.3,0
47,4425,0.4,-0.1,-0.4,0.4,6.8,6.3,0
47,4516,0.1,-0.1,-0.4,0.2,6.8,6.2,0
47,4611,0.2,0,-0.2,0.3,6.8,6.5,0
47,4701,-0.5,0,1.1,-0.3,6.5,8.1,0
47,4787,0.2,-0.3,0.4,0.3,6,8.3,0
47,4873,0.3,-0.4,0.1,0.6,6,7.3,0
47,4966,0,-0.1,-0.1,0.2,6.3,6.9,0
48,54,-0.2,0.1,0,0.1,6.4,7.2,0
48,140,0,-0.2,-0.2,0.2,6.2,7,0
48,226,0.1,-0.1,0.6,0.4,6.3,7.8,0
48,312,-0.2,-0.1,-0.7,0,6.3,6.5,0
48,403,0.1,-0.2,-0.3,0.5,6.1,6.9,0
48,487,0.1,-0.1,0.5,0.4,6.2,7.9,0
48,572,-0.1,0,-0.2,0.3,6.2,7.1,0
48,657,0.1,-0.1,-0.3,0.4,6.1,7,0
48,749,0,-0.1,0.2,0.3,6,7.7,0
48,835,0,-0.1,0.3,0.3,6,7.7,0
48,919,0,0,0,0.3,6,7.5,0
48,1004,0.1,-0.1,0,0.4,6,7.5,0
48,1098,-0.1,0,0.1,0.2,6.1,7.7,0
48,1184,-0.1,0,0.1,0.3,6,7.7,0
48,1273,-0.2,-0.1,0.1,0.3,6,7.5,0
48,1363,-0.2,0,0.2,0.2,6,7.7,0
48,1450,0,-0.1,0.1,0.4,6,7.6,0
48,1534,-0.1,0,0.2,0.3,6,7.8,0
48,1619,-0.1,0,-0.2,0.4,6,7.3,0
48,1704,0.1,-0.1,-0.2,0.6,6,7.4,0
48,1789,-0.1,-0.1,0,0.3,5.9,7.4,0
48,1874,-0.3,0.1,0.3,0.1,6.1,7.9,0
48,1962,0,0,0.1,0.4,6,7.7,0
48,2048,-0.3,-0.1,0.5,0,6,7.8,0
48,2132,0,0,0,0.3,6.1,7.3,0
48,2220,0,-0.1,0.1,0.4,6,7.5,0
48,2305,0,0,0.3,0.3,6,7.8,0
48,2391,0,-0.1,0.1,0.4,6,7.5,0
48,2476,0,0,-0.2,0.4,6.1,7.3,0
48,2579,0,-0.1,0.1,0.4,6,7.5,0
48,2665,-0.2,0.1,0,0.2,6.3,7.3,0
48,2750,0,-0.1,0.3,0.4,6.1,7.7,0
48,2837,0,-0.1,-0.2,0.4,6,7.2,0
48,2924,0,-0.1,-0.1,0.4,6.1,7.3,0
48,3009,-0.5,0,0.2,-0.1,6.2,7.6,0
48,3098,-0.1,0,0,0.3,6.1,7.4,0
48,3185,0.7,-0.3,0.5,0.8,5.8,8.2,0
48,3270,-0.1,0,-0.1,0.4,6.2,7.2,0
48,3359,-0.1,0.1,-0.1,0.5,6.2,7.4,0
48,3443,-0.1,-0.1,0.6,0.4,6.1,7.9,0
48,3528,-0.2,0.1,0,0.2,6.3,7.4,0
48,3612,0,-0.1,-0.4,0.5,6,7,0
48,3698,0.3,-0.1,0.1,0.6,6,7.7,0
48,3783,-0.1,0,0.3,0.4,6.1,7.8,0
48,3868,-0.2,0.1,-0.2,0.2,6.2,7.2,0
48,3959,0.1,0,0.1,0.5,6.1,7.6,0
48,4050,0.2,-0.2,0,0.6,6,7.3,0
48,4137,-0.3,0.1,0.2,0.2,6.2,7.5,0
48,4225,0,-0.1,0.1,0.4,6,7.6,0
48,4312,0,-0.1,-0.1,0.4,6.1,7.4,0
48,4397,0.1,-0.1,0,0.4,6.1,7.4,0
48,4482,-0.5,0.2,0.4,-0.2,6.5,7.6,0
48,4572,0.1,-0.2,-0.5,0.3,6.3,6.9,0
48,4657,0.4,-0.2,-0.3,0.6,6.3,6.7,0
48,4747,-0.5,0.3,0.3,-0.4,6.6,7.4,0
48,4834,-0.1,-0.2,0.6,-0.2,6.2,7.9,0
48,4920,-0.2,0,0,-0.2,6.3,7.4,0
49,29,0.1,0,0.3,0.7,6.3,7.5,0
49,115,0.1,0,-0.1,0.7,6.2,7.3,0
49,201,-0.2,-0.1,-0.2,0.6,6,7.2,0
49,291,0,-0.1,-0.1,0.7,6.1,7.3,0
49,376,0,-0.2,-0.1,0.6,5.8,7.4,0
49,461,0.2,-0.2,0.2,1,6,7.6,0
49,546,0,-0.2,-0.2,0.7,6,7.1,0
49,638,0,0,-0.2,0.7,6.2,7.2,0
49,724,0,0,0.4,0.5,6.2,7.7,0
49,811,0.1,-0.1,-0.2,0.6,6.2,7.1,0
49,896,-0.5,0.4,-0.3,-0.3,6.8,7,0
49,985,-0.3,0.1,0.3,0.1,6.4,7.5,0
49,1077,-0.3,0,0.1,0.1,6.3,7.3,0
49,1167,0,-0.1,0,0.4,6.3,7.2,0
49,1255,0.2,-0.1,0.2,0.5,6.3,7.2,0
49,1341,-0.1,0,0.2,0.2,6.4,7.4,0
49,1427,-0.1,0,0.1,0.2,6.4,7.3,0
49,1511,0.1,-0.2,0,0.5,6.3,7.2,0
49,1598,0.1,-0.2,0,0.4,6.3,7.2,0
49,1687,-0.2,0,0.2,0.2,6.4,7.5,0
49,1776,-0.1,-0.1,-0.2,0.3,6.4,6.9,0
49,1860,0.1,0,0.3,0.4,6.5,7.4,0
49,1943,0,0,0.2,0.2,6.7,7.2,0
49,2028,-0.5,-0.3,-0.8,-0.6,6.6,6,0
49,2114,0.5,-0.4,0.6,0.7,6.3,7.4,0
49,2204,0,-0.2,-0.7,0.1,6.5,6.6,0
49,2291,0.5,-0.2,0.1,0.8,6.4,6.6,0
49,2375,0.2,-0.3,0.4,0.4,6.3,7.3,0
49,2460,-0.1,-0.7,-1.1,0.1,6.1,6.2,0
49,2547,0.4,-0.3,0.4,0.5,6.4,7.4,0
49,2636,-0.4,0,-0.8,-0.1,6.8,6.1,0
49,2725,-0.3,-0.1,0.3,0,6.5,7.2,0
49,2810,-0.2,0,0.6,0.1,6.6,7.5,0
49,2894,0.3,-0.4,-0.2,0.5,6.3,6.7,0
49,2983,0.6,-0.2,0.6,0.7,6.6,7.8,0
49,3070,-0.4,-0.1,-0.7,-0.5,6.8,5.8,0
49,3154,-1.4,0.9,0.2,-1.4,7.6,7.1,0
49,3240,0.4,-0.5,-0.2,0.3,6.4,6.6,0
49,3325,-0.8,0.4,0.9,-0.5,7.1,8,0
49,3409,0.1,-0.3,0,0.3,6.4,7,0
49,3496,0.2,-0.2,-0.3,0.5,6.5,6.6,0
49,3581,-0.1,-0.2,0.1,0.3,6.6,7,0
49,3674,-0.3,0,0.2,0,6.7,7,0
49,3760,-0.2,-0.1,0.1,0.1,6.7,7,0
49,3847,-0.1,0,0,0.2,6.7,6.9,0
49,3935,-0.1,-0.1,0,0.2,6.6,6.9,0
49,4024,0,-0.2,0.3,0.3,6.5,6.9,0
49,4110,-0.1,0,0,0.2,6.7,6.8,0
49,4195,-0.1,-0.1,0.4,0.3,6.6,7.3,0
49,4282,0.1,0,0.1,0.4,6.6,7,0
49,4375,0,-0.1,0,0.4,6.5,6.9,0
49,4460,-0.1,0,0.2,0.2,6.6,7.2,0
49,4546,-0.1,0,0.2,0.2,6.6,7.2,0
49,4632,-0.1,0,-0.1,0.2,6.6,6.9,0
49,4722,0.1,-0.1,0,0.3,6.5,6.9,0
49,4809,0,-0.1,0.2,0.3,6.5,7.1,0
49,4895,-0.1,-0.1,0.3,0.1,6.5,7.3,0
49,4980,-0.1,0,0,0.1,6.6,7.1,0
50,78,0,0,0.2,0.2,6.6,7.2,0
50,164,0,-0.1,-0.4,0.2,6.5,6.6,0
50,256,0.1,-0.1,-0.2,0.2,6.5,6.8,0
50,341,0,-0.1,0.3,0.1,6.5,7.4,0
50,426,0.2,-0.2,0.1,0.1,6.5,7,0
50,511,-0.8,0,-1.5,-1.1,7,5.1,0
50,601,0.4,-0.2,0.4,0.3,6.6,7.2,0
50,689,0.3,-0.2,-0.2,0.2,6.7,6.5,0
50,777,-0.2,0,0.2,-0.2,6.9,6.9,0
50,862,0.1,-0.3,-0.1,0,6.7,6.5,0
50,946,-0.6,0.3,0.2,-0.9,7.4,6.7,0
50,1038,-0.2,-0.1,0.3,-0.2,6.9,6.9,0
50,1122,0,0.2,0.3,0,7.1,7,0
50,1208,-0.1,-0.2,0.7,0,6.7,7.4,0
50,1292,-0.1,0,0,0,6.9,6.7,0
50,1377,-0.2,0,-0.1,0.1,6.9,6.6,0
50,1463,0.1,-0.3,0.1,0.3,6.5,6.9,0
50,1551,-0.1,0,0.2,0.2,6.8,7,0
50,1635,-0.3,0.1,0.4,0.1,6.7,7.1,0
50,1720,-0.2,-0.1,0.4,0.3,6.6,7.1,0
50,1806,-0.1,0.1,0.1,0.3,6.7,7,0
50,1892,0,0,0.1,0.2,6.7,7.1,0
50,1987,0.1,-0.1,-0.1,0.5,6.6,6.8,0
50,2073,-0.1,0.1,0.1,0.2,6.7,7.1,0
50,2159,-0.7,0.2,0.4,-0.6,6.9,7.3,0
50,2248,0.3,-0.3,0.3,0.1,6.7,7.1,0
50,2336,0.2,-0.2,-0.3,0.3,6.4,6.7,0
50,2424,-0.1,-0.2,0.2,0.2,6.6,7,0
50,2514,-0.3,0,0.3,-0.2,6.8,7.1,0
50,2602,0,0,-0.1,0.1,6.7,6.7,0
50,2688,-0.1,0,0.2,0.1,6.8,7,0
50,2775,0.2,-0.1,0.3,0.3,6.6,7.1,0
50,2858,0.2,-0.1,0,0.3,6.6,6.9,0
50,2949,-0.1,0,0,0.1,6.7,6.8,0
50,3038,0.1,-0.2,-0.2,0.2,6.6,6.7,0
50,3123,-0.1,0,0.2,0.1,6.7,7.1,0
50,3209,-0.4,0.1,0,-0.2,6.8,7,0
50,3296,-0.1,-0.2,0.3,0,6.5,7.2,0
50,3382,0.2,-0.2,0,0.3,6.6,6.9,0
50,3470,-0.2,-0.1,-0.1,0,6.7,6.9,0
50,3555,-0.2,0.1,0,0,6.8,6.9,0
50,3640,-0.1,-0.1,0.2,0.1,6.7,7,0
50,3727,0,-0.1,0.4,0.2,6.6,7.3,0
50,3817,-0.1,0,0.1,0.2,6.7,7,0
50,3912,-0.1,0.1,0,0.2,6.8,6.9,0
50,3998,-0.1,0,-0.1,0.2,6.8,6.7,0
50,4087,0,0.1,0.3,0.2,6.8,7,0
50,4170,-0.4,-0.2,-0.1,-0.2,6.5,7,0
50,4256,0.1,-0.1,-0.4,0.3,6.7,6.4,0
50,4346,0.3,-0.3,0.5,0.7,6.3,7.5,0
50,4431,-0.1,0,0,0.4,6.6,6.9,0
50,4525,0,0,-0.2,0.4,6.6,6.8,0
50,4610,0,0,0.2,0.5,6.6,7.2,0
50,4699,0.2,-0.2,0.3,0.6,6.4,7.2,0
50,4795,-0.2,0,-0.1,0.2,6.6,6.9,0
50,4894,0,0,0.3,0.4,6.5,7.2,0
50,4987,-0.1,-0.2,0.2,0.3,6.4,7.2,0
51,75,-0.2,0.1,0.5,0.2,6.7,7.4,0
51,161,-0.2,0.2,0.6,0,6.8,7.5,0
51,248,0,0,0.1,0.3,6.6,7.1,0
51,342,-0.1,-0.2,0.3,0.7,6.4,7.1,0
51,428,-0.1,0.1,0.1,0.2,6.8,7,0
51,516,-1,0.7,0.4,-0.7,7.5,7.5,0
51,600,0,-0.2,-0.3,0.4,6.6,6.4,0
51,686,0.3,-0.1,-0.1,0.6,6.7,6.7,0
51,770,-0.6,0,0.5,-0.1,7,7.3,0
51,856,-0.1,-0.1,0.6,0,6.7,7.5,0
51,945,0.1,-0.1,0,0.4,6.7,6.8,0
51,1032,0,-0.1,0.1,0.3,6.7,6.8,0
51,1124,0,0,0.2,0.3,6.8,7,0
51,1211,-0.1,0,0.2,0.2,6.7,7,0
51,1300,-0.1,0,0.4,0.2,6.7,7.1,0
51,1387,-0.1,0,0.1,0.2,6.7,6.9,0
51,1473,0,-0.1,0,0.2,6.6,6.9,0
51,1559,-0.2,0.2,0.5,0.1,7,7.3,0
51,1653,0.1,0,0,0.1,6.8,6.8,0
51,1738,-0.2,0.1,0.1,0,6.9,6.8,0
51,1824,0.1,-0.1,-0.2,0.4,6.7,6.6,0
51,1909,0.2,-0.3,0.3,0.6,6.4,7.3,0
51,1998,0,0.2,-0.9,0.3,6.9,6,0
51,2082,0.4,-0.2,-0.2,0.8,6.5,6.6,0
51,2168,0.1,-0.3,0.3,0.4,6.4,6.9,0
51,2255,-0.6,0.6,-0.3,-0.4,7.3,6.6,0
51,2341,-0.1,0,0.7,0.1,6.8,7.6,0
51,2432,-0.1,-0.1,0,0,6.7,6.6,0
51,2518,0.2,-0.3,0.1,0.4,6.6,7,0
51,2602,0,0,-0.3,0.4,6.8,6.6,0
51,2687,-0.3,0.1,-1.3,0.2,6.8,5.9,0
51,2777,0.5,-0.2,0.2,0.8,6.6,6.8,0
51,2865,-0.3,-0.1,0.1,-0.1,6.8,6.8,0
51,2953,-0.3,0.2,0.3,0,7,6.9,0
51,3038,0.2,-0.2,0.2,0.4,6.8,6.9,0
51,3122,0.1,0,-0.1,0.3,6.9,6.7,0
51,3207,-0.1,-0.1,0,0.1,6.8,6.8,0
51,3299,0.2,0,-0.1,0.4,6.8,6.7,0
51,3387,0,-0.1,0.2,0.2,6.8,7,0
51,3471,-0.1,0,-0.5,0.3,6.8,6.2,0
51,3556,-0.1,0,0.2,0.4,7,7.2,0
51,3642,-0.3,-0.1,-0.2,0.1,6.7,6.6,0
51,3737,0.1,0,0.3,0.5,6.7,7.4,0
51,3826,0,-0.1,0.2,0.8,6.3,7.3,0
51,3915,0.1,-0.2,0,0.7,6.5,7.1,0
51,4006,-0.1,-0.2,0.1,0.6,6.4,7,0
51,4092,0,-0.1,0,0.6,6.5,7,0
51,4180,0,-0.1,-0.1,0.8,6.5,7,0
51,4266,0,-0.4,0.3,0.7,6.2,7.3,0
51,4352,0.1,0,0.2,0.5,6.6,7.4,0
51,4437,0.4,-0.2,-0.5,1,6.3,6.7,0
51,4523,-0.2,0.1,0.1,0.4,6.6,7.1,0
51,4614,-0.5,0.2,0.2,0,6.7,7.4,0
51,4705,0.1,0.1,0,0.5,6.6,7.2,0
51,4790,-0.1,-0.1,-0.3,0.4,6.5,6.8,0
51,4886,0,0,0.1,0.3,6.5,7.2,0
51,4971,0,0,0.2,0.2,6.5,7.2,0
52,49,0,0,-0.1,0.2,6.8,6.7,0
52,137,-0.1,-0.1,0,0.1,6.8,6.8,0
52,229,0,-0.1,0.1,0.2,6.7,6.8,0
52,315,0,-0.1,0,0.3,6.8,6.7,0
52,399,0,0,-0.3,0.2,6.8,6.5,0
52,485,-0.1,-0.2,0.4,0.3,6.7,7.1,0
52,570,0.2,-0.2,0.3,0.6,6.7,7,0
52,655,-0.1,0,-0.1,0.2,6.9,6.7,0
52,744,0,0,0.2,0.3,6.8,6.9,0
52,830,0,-0.1,0.1,0.2,6.8,6.9,0
52,915,0.1,-0.1,0.3,0.3,6.8,7.1,0
52,1002,-0.1,0,-0.1,0.1,6.8,6.6,0
52,1087,0.1,0,-0.2,0.3,6.9,6.6,0
52,1172,0.2,0,0.2,0.3,6.6,7.3,0
52,1266,0,-0.1,0.3,0.3,6.7,7,0
52,1351,0.2,-0.1,-0.2,0.3,6.8,6.5,0
52,1437,-0.1,0,0.3,0.1,6.9,7.1,0
52,1522,-0.2,-0.1,-0.1,0.1,6.8,6.6,0
52,1612,-0.2,0,0.3,0.1,6.8,7.1,0
52,1698,-0.1,-0.1,0.3,0.2,6.8,7.1,0
52,1783,0,0,0.1,0.2,6.8,6.8,0
52,1871,-0.1,0,0.1,0.3,6.8,6.8,0
52,1957,0.3,-0.1,0.2,0.5,6.7,7,0
52,2045,0.2,-0.1,-0.2,0.6,6.6,6.8,0
52,2132,0.2,-0.2,-0.3,0.4,6.8,6.4,0
52,2219,-0.2,0,-0.1,0.1,6.8,6.6,0
52,2304,0,-0.1,0.4,0.3,6.7,7,0
52,2390,-0.3,-0.3,-0.1,-0.2,6.7,6.5,0
52,2475,0.5,-0.2,0.2,0.6,6.6,7,0
52,2559,0.2,-0.4,-0.5,0.4,6.6,6.2,0
52,2647,0.2,-0.3,0.2,0.5,6.6,6.9,0
52,2734,0.3,-0.3,-0.2,0.8,6.7,6.4,0
52,2819,-0.1,0,0.2,0.1,6.8,6.9,0
52,2905,-0.1,0,-0.2,0.1,6.8,6.6,0
52,3000,0.1,-0.2,-0.1,0.3,6.6,6.7,0
52,3085,0.1,-0.1,0.3,0.2,6.8,6.9,0
52,3176,-0.2,0.1,-0.5,0,7,6.3,0
52,3266,0,-0.1,-0.3,0.3,6.8,6.4,0
52,3355,-0.3,0.1,0.6,-0.5,7.2,7.4,0
52,3443,-0.2,0.1,0.8,0,6.9,7.4,0
52,3529,0.1,-0.5,-1.1,0.3,6.4,5.5,0
52,3614,0.5,-0.1,0.3,0.7,6.7,7,0
52,3700,-0.1,-0.1,0.1,0,6.9,6.7,0
52,3785,-0.5,0,0.7,-0.2,6.9,7.3,0
52,3870,-0.1,0,0,0.2,6.9,6.6,0
52,3956,-0.1,0,0.2,0.2,6.9,6.8,0
52,4047,-0.2,-0.1,0.1,0,6.8,6.8,0
52,4132,-0.1,0,0.3,0.2,7,6.9,0
52,4218,-0.1,-0.2,0.5,0,6.8,7.2,0
52,4308,-0.3,0,0.3,0.2,6.7,7.1,0
52,4392,0,0,0.2,0.7,6.4,7.2,0
52,4478,0,0,0.4,0.8,6.5,7.4,0
52,4562,0,-0.1,0.6,0.8,6.3,7.8,0
52,4648,0,-0.1,0,0.8,6.3,7.1,0
52,4737,-0.1,-0.1,0.2,0.7,6.3,7.3,0
52,4822,0,-0.1,0.1,0.9,6.3,7.2,0
52,4912,0,-0.1,0,0.8,6.3,7.1,0
53,3,-0.2,-0.2,0.2,0.6,6.2,7.3,0
53,91,-0.2,-0.1,0.2,0.6,6.3,7.4,0
53,176,0.1,-0.1,-0.2,0.9,6.3,6.9,0
53,261,0.1,-0.1,0.3,0.9,6.3,7.4,0
53,346,0.1,0,0,0.8,6.4,7.1,0
53,431,0,-0.1,-0.2,0.7,6.3,6.9,0
53,526,0.1,0,-0.1,0.8,6.3,6.9,0
53,615,-0.1,0,-0.3,0.3,6.6,6.7,0
53,699,-0.1,0,0.2,0.5,6.5,7.3,0
53,785,-0.3,-0.1,0,0.2,6.5,7.1,0
53,871,0,0,-0.2,0.4,6.5,6.9,0
53,962,-0.1,0,0.1,0.3,6.5,7.2,0
53,1047,0,0,0.1,0.4,6.5,7.1,0
53,1132,0,-0.1,0.1,0.4,6.5,7.1,0
53,1217,0,0,0.2,0.2,6.6,7.1,0
53,1310,-0.1,0,-0.1,0.1,6.7,6.9,0
53,1391,0.1,-0.2,0.5,0.2,6.7,7.3,0
53,1478,-0.7,0,-0.1,-0.7,6.8,6.5,0
53,1563,0.6,-0.5,0.1,0.7,6.3,6.7,0
53,1649,-0.1,0,0.5,0,6.8,7.3,0
53,1738,-0.1,0,0,0.1,6.7,7.1,0
53,1831,-0.2,0,0,0,6.7,6.8,0
53,1918,-0.1,-0.1,0.4,0.1,6.6,7.2,0
53,2005,0,0,0.2,0.2,6.7,7.1,0
53,2092,-0.1,-0.1,-0.1,0.2,6.7,6.7,0
53,2178,-0.2,0,0.5,0.1,6.7,7.3,0
53,2264,-0.1,-0.1,0.3,0.2,6.6,7.3,0
53,2349,0.1,0,-0.7,0.3,6.6,6.5,0
53,2436,0,-0.1,0.4,0.3,6.6,7.3,0
53,2526,0.1,-0.1,-0.2,0.3,6.6,6.8,0
53,2610,0.2,-0.1,0.2,0.4,6.5,7.1,0
53,2695,-0.2,0,0.2,0,6.7,7.2,0
53,2781,0.1,-0.2,0.6,0.1,6.6,7.4,0
53,2865,-0.4,0,-1.3,-0.8,7,5,0
53,2954,0.3,-0.5,0.6,0.2,6.4,7.4,0
53,3041,0.7,-0.4,-0.5,0.6,6.5,6.3,0
53,3127,0.2,-0.1,0.3,0.2,6.8,7.2,0
53,3213,0.3,-0.2,-0.3,0.5,6.7,6.5,0
53,3298,-0.1,0,0,0.3,6.8,7.1,0
53,3384,-0.1,0,0,0.1,6.8,6.8,0
53,3475,0.1,-0.2,-0.2,0.3,6.7,6.6,0
53,3563,0,-0.1,0.2,0.2,6.7,7,0
53,3652,-0.2,-0.1,0.3,0,6.7,7.1,0
53,3741,-0.1,-0.1,0,0.1,6.7,6.7,0
53,3828,0,-0.1,0.2,0.2,6.8,6.9,0
53,3914,0.1,-0.2,0,0.3,6.7,6.8,0
53,3997,0.1,-0.1,0.4,0.4,6.7,7.2,0
53,4090,-0.2,0.2,0.1,0,7,6.8,0
53,4175,0,0,0.1,0.2,6.8,6.9,0
53,4260,0,0,0.3,0.2,6.8,7.1,0
53,4345,-0.1,-0.1,-0.1,0.1,6.6,6.8,0
53,4438,0,0,0,0.2,6.7,6.9,0
53,4522,-0.1,-0.1,0.1,0.1,6.6,7.1,0
53,4608,0.1,-0.1,-0.1,0.2,6.6,6.9,0
53,4697,0,0,-0.1,0.1,6.6,6.9,0
53,4783,0,0,0.1,0,6.6,7.1,0
53,4873,-0.1,0,0,0.1,6.6,6.9,0
53,4967,0.1,-0.1,0.1,0.3,6.5,7.1,0
54,29,-0.2,0,0.1,0.3,6.8,6.9,0
54,115,0,-0.2,-0.7,0.4,6.8,6,0
54,202,-0.2,-0.5,-0.9,0.3,6.3,6.2,0
54,292,0,-0.1,0.8,0.2,6.7,7.6,0
54,376,0.2,-0.5,-1.2,0.5,6.4,5.5,0
54,461,0.3,-0.2,0.4,0.6,6.6,7.2,0
54,557,0,0,0,0.3,6.7,6.8,0
54,643,-0.2,-0.1,0.3,0.2,6.8,7.1,0
54,736,0,-0.1,-0.2,0.3,6.7,6.6,0
54,820,-0.1,-0.1,0.2,0.2,6.7,7,0
54,905,0.1,-0.1,-0.3,0.6,6.7,6.6,0
54,1007,0,0.2,-0.3,0.3,7,6.5,0
54,1094,0.4,-0.2,0,0.8,6.4,6.9,0
54,1188,0.1,-0.2,0.7,0.8,6.3,7.7,0
54,1272,0,0,-0.2,0.9,6.4,6.9,0
54,1358,0,0,-0.2,0.7,6.4,6.9,0
54,1443,-0.1,-0.2,-0.1,0.5,6.3,6.9,0
54,1539,0,-0.1,0.2,0.7,6.4,7.3,0
54,1624,0,-0.1,-0.3,0.7,6.3,6.8,0
54,1709,-0.2,-0.1,0.2,0.4,6.4,7.4,0
54,1801,0.1,-0.2,-0.2,0.8,6.3,6.9,0
54,1886,-0.2,0.1,0.3,0.6,6.5,7.4,0
54,1974,-0.3,0,0.2,0.2,6.5,7.3,0
54,2062,0.1,-0.1,-0.2,0.6,6.3,7,0
54,2149,0.3,-0.2,0,0.7,6.3,7.2,0
54,2237,0.2,0.1,-0.1,0.5,6.4,7.2,0
54,2322,-0.1,0,0.1,0.1,6.4,7.6,0
54,2409,-0.1,0,0.1,-0.2,6.4,7.1,0
54,2497,-0.7,0.5,0,-0.8,6.9,7.3,0
54,2583,-2.2,-0.4,-0.6,-2.8,5.9,7.1,0
54,2670,0,-0.8,0,-0.3,5.3,7.7,0
54,2755,1.9,-0.6,1.1,1.7,5.2,9.1,0
54,2841,1.4,-0.8,0.3,1.1,4.9,8,0
54,2936,1.5,-0.4,-0.1,1.3,5.4,7.7,0
54,3022,-0.1,0.2,0.3,0.1,6,8,0
54,3111,-0.5,0.1,0.2,-0.7,5.9,8,0
54,3198,-0.1,-0.4,-0.3,-0.2,5.5,7.3,0
54,3285,0.3,-0.4,-0.3,0.4,5.6,7.3,0
54,3370,0.3,-0.5,-0.3,0.1,5.4,7.5,0
54,3456,-0.4,0.1,0.9,-0.8,6,8.5,0
54,3542,-0.2,-0.2,0.1,-0.3,5.5,7.9,0
54,3630,0,-0.2,0,-0.1,5.5,7.8,0
54,3715,0.2,-0.4,-0.2,0.4,5.3,7.6,0
54,3801,-0.1,-0.2,0.6,-0.1,5.5,8.5,0
54,3887,0,0,0.5,-0.1,5.8,8.3,0
54,3972,-0.1,-0.3,-0.9,-0.2,5.7,6.8,0
54,4058,0,-0.1,0.7,-0.1,5.8,8.4,0
54,4147,0.1,0,-0.1,0,6.1,7.5,0
54,4232,0,-0.1,0,0.3,5.9,7.6,0
54,4320,-0.1,0,0.2,-0.2,6,7.8,0
54,4408,0,-0.2,0.1,0,5.8,7.7,0
54,4499,0.2,-0.3,-0.4,0.2,5.8,7.2,0
54,4587,-0.3,0,-0.2,-0.1,6,7.2,0
54,4678,-0.3,-0.1,0.6,-0.1,5.9,8.2,0
54,4762,0.1,-0.2,0.1,0.3,5.8,7.7,0
54,4847,0.3,0,0,0.4,6.1,7.4,0
54,4935,-0.2,0,-0.1,-0.3,6.3,7.3,0
55,24,-0.2,0.1,0.3,-0.3,6.5,7.5,0
55,119,0.1,-0.2,-0.1,-0.2,6.4,7.1,0
55,203,-0.1,0.1,0.2,-0.3,6.6,7.2,0
55,289,-0.4,-0.1,0.7,-0.8,6.6,7.5,0
55,372,0.2,0,-0.3,-0.4,6.9,6.4,0
55,460,-1.3,0.7,0.4,-1.7,7.3,7.1,0
55,549,0,-0.2,0.8,-0.1,6.3,7.7,0
55,635,-0.6,0.3,0.3,-0.8,6.9,7.4,0
55,724,-0.6,0.1,0.1,-0.7,6.6,7.1,0
55,818,0.2,-0.1,-0.2,0.4,6.4,6.9,0
55,905,-0.1,-0.1,0.1,0,6.4,7.1,0
55,1000,-0.2,0,0,-0.1,6.5,7,0
55,1084,-0.2,0,0,-0.1,6.6,7.1,0
55,1168,0,0,-0.3,0,6.6,6.7,0
55,1253,0,0,-0.3,0.2,6.7,6.6,0
55,1342,0.1,-0.1,0,0.5,6.5,6.9,0
55,1432,0.2,-0.2,-0.3,0.6,6.5,6.6,0
55,1517,0.4,-0.2,-0.1,1.2,6.4,6.6,0
55,1602,-0.4,0,0,0.2,6.7,6.7,0
55,1689,-0.1,0,0.6,0.3,6.6,7.5,0
55,1774,0,-0.2,0,0.5,6.4,7,0
55,1859,-0.1,0,0,0.4,6.5,7,0
55,1947,0.1,-0.1,0,0.5,6.4,7.1,0
55,2032,-0.1,0,0,0.4,6.4,7.1,0
55,2119,0.2,-0.2,-0.1,0.5,6.3,7,0
55,2207,0.1,-0.1,0,0.5,6.3,7.2,0
55,2293,0,0,-0.2,0.4,6.3,7.1,0
55,2388,0,-0.1,0.3,0.4,6.1,7.7,0
55,2475,-0.1,-0.1,-0.3,0.3,6.1,7.1,0
55,2562,-0.1,0,0.2,0.3,6.2,7.5,0
55,2657,-0.2,-0.1,0.7,0.1,6.3,8,0
55,2741,-0.1,0,0.2,0.3,6.3,7.5,0
55,2828,-0.1,0,-0.2,0.1,6.3,7.1,0
55,2916,0.1,0,0.1,0.2,6.3,7.2,0
55,3004,0.2,-0.2,-0.4,0.2,6.2,6.7,0
55,3093,0.2,-0.2,-0.3,0.3,6.4,6.8,0
55,3178,0.1,-0.2,0,0.2,6.4,7,0
55,3263,0.1,0.1,0,0.2,6.7,7,0
55,3348,-0.1,-0.1,0.4,0.1,6.4,7.2,0
55,3432,0.2,-0.1,0,0.4,6.4,7,0
55,3518,-0.1,0,0.1,0.1,6.6,7.2,0
55,3602,0,-0.1,0.2,0.2,6.5,7.2,0
55,3688,0,-0.2,-0.1,0.1,6.4,6.9,0
55,3771,0.1,-0.2,0,0.3,6.4,7.1,0
55,3860,0.1,-0.1,-0.1,0.3,6.4,7,0
55,3946,-0.2,-0.1,0.6,0.1,6.4,7.5,0
55,4031,0.1,0,0.2,0.3,6.4,7.2,0
55,4117,0.3,-0.1,-0.1,0.3,6.3,7.1,0
55,4203,0.1,0,0.2,0.2,6.4,7.4,0
55,4292,-0.1,0,-0.3,0.2,6.4,6.9,0
55,4377,0.1,-0.1,0,0.4,6.3,7.2,0
55,4463,-0.1,0,0,0.2,6.3,7.2,0
55,4549,0,-0.1,0.2,0.3,6.2,7.4,0
55,4635,0,-0.1,0,0.2,6.3,7.2,0
55,4722,-0.1,-0.1,0.1,0.2,6.3,7.3,0
55,4814,-0.1,0,0.3,0.2,6.3,7.5,0
55,4898,0,-0.1,0.1,0.3,6.3,7.3,0
55,4987,0,-0.1,-0.1,0.3,6.3,7.2,0
56,31,-0.2,0,0.3,0.4,6.3,7.6,0
56,120,0.2,-0.2,0.1,0.9,6.1,7.3,0
56,209,0.3,-0.2,-0.1,0.7,6.1,7.1,0
56,295,0,-0.1,0.1,0.4,6.2,7.4,0
56,387,0.2,-0.2,0.1,0.5,6.3,7.3,0
56,480,0.5,0.1,-0.2,0.6,6.6,7,0
56,564,0.2,-0.4,0.1,0.6,6.1,7.2,0
56,650,-0.5,0,-0.1,-0.5,6.9,6.4,0
56,740,-0.9,0.4,0,-1,7.3,6.8,0
56,832,-0.1,-0.1,0.1,-0.3,6.8,6.9,0
56,918,0.1,0,-0.4,0.1,6.7,6.5,0
56,1008,0.3,-0.1,0.2,0.5,6.5,7.4,0
56,1096,0.1,0,-0.2,0.3,6.5,7,0
56,1188,0,-0.1,-0.1,0.3,6.4,7,0
56,1274,-0.2,-0.1,0.1,0.1,6.4,7.3,0
56,1359,-0.2,-0.1,0.2,0.1,6.3,7.5,0
56,1443,-0.2,0,0,0.2,6.4,7.2,0
56,1528,0,-0.1,0.2,0.5,6.3,7.5,0
56,1613,0.1,-0.1,-0.1,0.5,6.3,7.1,0
56,1698,0.1,0,-0.1,0.5,6.4,7.1,0
56,1789,0,0,-0.4,0.4,6.4,6.8,0
56,1874,0,0,0.3,0.4,6.4,7.5,0
56,1962,0.1,-0.1,-0.4,0.5,6.3,6.9,0
56,2047,-0.1,0.1,0,0.4,6.6,6.9,0
56,2133,-0.8,0.3,0.4,-0.2,6.7,7.6,0
56,2224,-0.3,0.1,-0.1,0.3,6.4,7,0
56,2311,0.2,-0.2,0.4,0.7,6.4,7.5,0
56,2402,0,-0.1,0.1,0.5,6.5,7.2,0
56,2488,0,0,-0.3,0.6,6.5,6.7,0
56,2578,0.4,-0.2,0,0.9,6.4,7,0
56,2665,0,0,0.2,0.4,6.5,7.2,0
56,2754,0.1,0,-0.4,0.6,6.5,6.7,0
56,2839,0,-0.1,0,0.6,6.5,6.9,0
56,2928,-0.2,0,0.3,0.3,6.5,7.3,0
56,3014,-0.1,0,0.2,0.4,6.6,7.3,0
56,3105,0,-0.1,0,0.5,6.5,7,0
56,3190,0.2,-0.1,0,0.7,6.5,7,0
56,3276,-0.1,0,0.2,0.5,6.6,7.1,0
56,3363,-0.1,0.1,0,0.5,6.7,6.9,0
56,3450,0,0,0,0.6,6.6,7,0
56,3537,-0.2,0,0.4,0.5,6.6,7.2,0
56,3624,-0.2,0,0,0.4,6.6,7,0
56,3712,0,0,-0.1,0.6,6.6,6.9,0
56,3797,0.1,-0.1,-0.1,0.8,6.5,6.9,0
56,3885,0,-0.1,0,0.6,6.5,6.9,0
56,3971,0.2,-0.1,0,0.9,6.5,7,0
56,4064,0,-0.1,-0.2,0.7,6.5,6.7,0
56,4151,0,0.1,-0.5,0.6,6.6,6.9,0
56,4240,0,-0.2,-0.3,0.6,6.4,6.6,0
56,4327,0.1,-0.1,-0.4,0.7,6.5,6.5,0
56,4413,-0.1,0,0,0.4,6.6,7,0
56,4508,-0.1,0.1,-0.1,0.5,6.5,6.9,0
56,4589,-0.2,0,0.5,0.4,6.4,7.7,0
56,4675,0,-0.1,-0.3,0.6,6.4,6.8,0
56,4762,0.1,-0.1,0.2,0.7,6.4,7.3,0
56,4845,0,-0.1,0.2,0.6,6.4,7.2,0
56,4935,0,-0.1,0.2,0.6,6.4,7.2,0
57,22,-0.2,0.1,-0.1,0.5,6.6,7,0
57,114,-0.1,0,-0.1,0.5,6.5,6.9,0
57,200,0.4,0.1,-0.8,1,6.5,6.6,0
57,286,0.5,-0.3,0.2,0.6,6.5,6.8,0
57,374,-0.1,0,-0.8,0.3,6.7,6,0
57,460,-0.9,0.4,1.1,-0.4,6.9,8.1,0
57,544,0,-0.2,0.2,0.5,6.4,7.3,0
57,631,-0.1,0.2,0.4,0.4,6.7,7.5,0
57,717,-0.2,-0.1,0.2,0.4,6.4,7.2,0
57,808,0,0,0.3,0.5,6.5,7.3,0
57,896,-0.2,-0.2,-0.1,0.4,6.4,6.9,0
57,1004,0,-0.1,-0.2,0.5,6.4,6.8,0
57,1091,-0.1,0,0,0.3,6.5,7.1,0
57,1176,-0.2,-0.1,0,0.3,6.4,7.1,0
57,1261,0.2,-0.1,0.2,0.6,6.3,7.4,0
57,1346,-0.2,0,0,0.1,6.5,7.2,0
57,1437,-0.3,0.1,0.1,0,6.5,7.2,0
57,1522,-0.1,0,0.3,0.2,6.4,7.5,0
57,1606,0,-0.1,0.1,0.3,6.3,7.3,0
57,1691,0,0,-0.1,0.4,6.4,7.1,0
57,1775,-0.1,0,0.1,0.3,6.4,7.2,0
57,1859,0,-0.1,0.1,0.3,6.4,7.2,0
57,1948,0,-0.1,0,0.4,6.4,7.1,0
57,2034,-0.2,-0.1,0,0.2,6.3,7.1,0
57,2120,0,0,0.2,0.4,6.4,7.4,0
57,2207,0,-0.1,-0.1,0.5,6.3,7,0
57,2292,-0.1,0,0.2,0.3,6.5,7.2,0
57,2379,0.1,-0.2,0.1,0.5,6.3,7.2,0
57,2465,-0.3,0,0.2,0,6.5,7,0
57,2558,-0.5,0,-0.3,-0.3,6.7,6.6,0
57,2643,0,0,0.8,0.3,6.5,7.9,0
57,2735,0.1,-0.1,0,0.4,6.2,6.9,0
57,2821,0,-0.2,0.2,0.3,6.3,7.2,0
57,2906,0,-0.1,-0.3,0.3,6.4,6.8,0
57,2998,0,0,0.2,0.4,6.4,7.3,0
57,3087,0,-0.1,0.2,0.4,6.4,7.2,0
57,3172,-0.1,0,0.1,0.3,6.6,7,0
57,3258,0,-0.1,-0.2,0.4,6.4,6.8,0
57,3344,-0.2,0,0.1,0.2,6.6,7.3,0
57,3429,-0.3,0,0,0.2,6.5,6.9,0
57,3520,0,-0.1,-0.5,0.5,6.4,6.7,0
57,3605,-0.1,0,0.3,0.2,6.5,7.3,0
57,3690,-0.2,0,0.3,0.2,6.5,7.5,0
57,3774,0.2,-0.1,0.2,0.6,6.4,7.3,0
57,3860,0,-0.1,0,0.4,6.4,7.1,0
57,3950,-0.1,0,-0.5,0.2,6.6,6.6,0
57,4037,0.3,-0.2,-0.2,0.8,6.3,6.8,0
57,4123,-0.2,-0.1,0,0.3,6.4,6.9,0
57,4207,-0.2,0,0.3,0.2,6.5,7.4,0
57,4291,0,-0.1,-0.2,0.4,6.4,6.9,0
57,4380,-0.1,0.1,0.2,0.3,6.6,7.3,0
57,4468,0.1,-0.1,0.1,0.5,6.3,7.2,0
57,4559,0,0,0,0.4,6.4,7.1,0
57,4646,-0.2,-0.1,0,0.3,6.4,7.1,0
57,4737,-0.1,0,0,0.4,6.5,7.1,0
57,4823,-0.2,0,0.3,0.2,6.4,7.4,0
57,4908,0,-0.1,0,0.4,6.4,7.1,0
58,0,0,0,-0.1,0.5,6.4,7,0
58,88,0.2,-0.3,-0.9,0.6,6.2,6.4,0
58,174,0.4,-0.1,-0.2,0.7,6.4,6.7,0
58,260,0.2,-0.2,-0.2,0.6,6.3,6.9,0
58,345,0.1,0,0.2,0.6,6.5,7.3,0
58,432,-0.1,0,0,0.5,6.6,7,0
58,521,-0.1,0,0.4,0.3,6.5,7.4,0
58,606,0,-0.1,-0.3,0.2,6.7,6.4,0
58,691,0.1,-0.1,-0.7,0.4,6.7,6.3,0
58,775,0.2,-0.2,0.1,0.5,6.5,7,0
58,862,0.2,-0.2,0.5,0.5,6.5,7.3,0
58,954,0.2,-0.2,0.1,0.6,6.5,7,0
58,1039,-0.3,0,0,0.1,6.8,6.9,0
58,1126,0,-0.1,-0.3,0.4,6.5,6.7,0
58,1220,-0.1,-0.2,-0.4,0.4,6.5,6.5,0
58,1306,0.1,-0.2,-0.2,0.5,6.5,6.6,0
58,1391,-0.1,0,0.4,0.3,6.6,7.3,0
58,1479,0.2,-0.2,0.1,0.6,6.4,7.1,0
58,1564,0,-0.1,0.2,0.3,6.5,7.3,0
58,1652,-0.2,0,0.2,0.2,6.5,7.2,0
58,1737,0,-0.1,0,0.4,6.5,7,0
58,1822,-0.1,-0.1,0.3,0.5,6.4,7.3,0
58,1907,-0.2,0,-0.1,0.2,6.6,7,0
58,1997,0,-0.1,0,0.4,6.4,7.1,0
58,2084,0,-0.1,0.1,0.5,6.4,7.2,0
58,2170,0,0,0.1,0.4,6.4,7.2,0
58,2254,-0.1,0,0.1,0.4,6.5,7.1,0
58,2340,-0.1,-0.1,0.1,0.3,6.4,7.2,0
58,2426,-0.2,0,-0.1,0.2,6.4,7,0
58,2515,0,-0.1,0.1,0.5,6.3,7.3,0
58,2604,0,-0.1,0,0.4,6.3,7.2,0
58,2690,0.2,-0.1,0,0.7,6.3,7.1,0
58,2775,0,-0.1,0.1,0.5,6.3,7.4,0
58,2865,-0.1,0.2,0.5,0.3,6.7,7.6,0
58,2951,0.4,-0.1,0.1,0.8,6.1,7.9,0
58,3037,0.1,0,-0.3,0.4,6.7,6.7,0
58,3123,0.1,-0.2,-0.2,0.4,6.6,6.7,0
58,3208,-0.9,-0.1,-0.3,-1.1,7.1,6.5,0
58,3298,0.3,-0.6,0.5,0.6,6.2,7.2,0
58,3384,-0.8,0.4,0.3,-0.2,7.1,7.2,0
58,3470,0,-0.2,-0.4,0.2,6.7,6.7,0
58,3555,0.3,-0.2,-0.1,0.7,6.5,6.8,0
58,3639,-0.2,0,-0.4,0.2,6.7,6.4,0
58,3730,-0.1,0,0.1,0.4,6.6,7,0
58,3816,0.1,-0.1,0.3,0.6,6.5,7.2,0
58,3904,0.1,-0.1,0.1,0.5,6.6,7.1,0
58,3992,0,0,0,0.5,6.6,7,0
58,4074,-0.1,-0.1,0.1,0.4,6.6,7.1,0
58,4163,-0.1,0,0,0.3,6.6,7,0
58,4253,0.1,-0.1,0,0.5,6.5,7,0
58,4337,0.1,-0.1,0,0.6,6.5,7,0
58,4422,0,-0.1,0.1,0.4,6.5,7,0
58,4509,0,0,0.1,0.4,6.6,7.1,0
58,4600,-0.1,0,0.2,0.4,6.6,7.1,0
58,4683,-0.2,0,0.1,0.2,6.6,7.1,0
58,4767,0.2,-0.1,-0.1,0.5,6.5,7,0
58,4853,-0.3,0,0.2,0.4,6.5,7.1,0
58,4936,0.1,-0.1,-0.2,0.3,6.6,6.9,0
59,23,0,-0.1,0,0.3,6.4,7,0
59,111,0.3,-0.2,-0.1,0.6,6.3,6.9,0
59,207,0.6,-0.4,1,0.9,6.1,8.2,0
59,298,0.1,-0.3,-0.6,0.1,6.5,6.6,0
59,386,-0.9,0.7,-0.5,-0.7,7.5,6.3,0
59,472,-0.3,0,0.4,-0.3,7,7.1,0
59,560,-0.2,-0.2,-0.3,0.1,6.7,6.6,0
59,645,-0.2,-0.1,0.1,0.1,6.6,7,0
59,733,-0.1,0,0.3,0.2,6.7,7.1,0
59,819,0,0,0,0.3,6.7,6.9,0
59,903,-0.1,-0.1,0,0.1,6.7,7,0
59,989,-0.1,0,0,0.2,6.7,6.9,0
59,1074,-0.3,0.1,-0.1,-0.1,6.8,6.8,0
59,1165,-0.1,-0.1,-0.3,0.5,6.5,6.8,0
59,1252,0.3,-0.2,0.6,1.1,6.2,7.9,0
59,1337,-0.3,0,-0.1,0.4,6.4,7.1,0
59,1423,-0.2,0.1,0.2,0.5,6.5,7.4,0
59,1508,-0.1,-0.1,0.1,0.5,6.4,7.2,0
59,1599,0,0.1,0.2,0.5,6.5,7.3,0
59,1686,-0.2,0,0.1,0.3,6.5,7.1,0
59,1771,-0.2,0.2,0.4,0.4,6.7,7.5,0
59,1862,-0.2,-0.1,0,0.4,6.5,7.1,0
59,1949,0.1,-0.1,0.2,0.7,6.4,7.2,0
59,2035,0,-0.1,0.1,0.6,6.4,7.2,0
59,2119,0,0,-0.3,0.6,6.6,6.4,0
59,2213,0,0,0.4,0.5,6.5,7.5,0
59,2299,0,-0.2,-0.3,0.6,6.4,6.7,0
59,2387,0,0,0.2,0.5,6.6,7.3,0
59,2472,0,-0.1,-0.1,0.5,6.5,6.9,0
59,2566,-0.1,0.1,0.1,0.1,6.8,7.1,0
59,2650,0,-0.1,0.2,0.4,6.6,7.2,0
59,2738,0.1,0.1,-0.1,0.5,6.7,6.8,0
59,2829,0,-0.2,0.1,0.1,6.7,7,0
59,2922,-0.2,0.2,0.5,0.1,6.9,7.1,0
59,3012,0.1,-0.2,0.1,0.2,6.7,6.8,0
59,3098,-0.1,0,0.1,0,6.9,6.7,0
59,3184,-0.2,-0.1,0.1,-0.1,6.8,6.9,0
59,3269,0,-0.1,0.3,0.2,6.8,7,0
59,3353,0,-0.2,0,0.2,6.7,6.8,0
59,3442,-0.4,-0.2,0.5,-0.1,6.7,7.2,0
59,3530,-0.2,0,-0.1,-0.1,6.8,7.1,0
59,3615,0.2,-0.2,0,0.5,6.5,6.9,0
59,3700,0,-0.1,0.3,0.4,6.6,7.2,0
59,3786,-0.1,-0.1,0,0.3,6.5,6.8,0
59,3871,-0.2,0,0.3,0.2,6.7,7.2,0
59,3962,-0.2,-0.1,0.1,0.2,6.5,7,0
59,4055,-0.1,0,0.1,0.4,6.5,7,0
59,4141,0.2,-0.1,-0.1,0.6,6.5,6.9,0
59,4233,0.2,-0.2,0.1,0.7,6.3,7,0
59,4319,-0.1,0,0,0.3,6.6,7,0
59,4405,0,0,0.2,0.4,6.5,7.3,0
59,4490,0,-0.1,0,0.4,6.5,7,0
59,4580,0,-0.1,0.2,0.4,6.4,7.3,0
59,4665,0.1,-0.1,0.1,0.5,6.4,7.1,0
59,4753,0,0,-0.2,0.5,6.4,6.9,0
59,4839,-0.1,0,0.1,0.3,6.5,7.2,0
59,4930,-0.1,-0.1,0.1,0.3,6.4,7.2,0
60,15,0.1,-0.1,0.1,0.5,6.4,7.2,0
60,101,-0.1,-0.1,0,0.3,6.3,7.2,0
60,186,0.1,-0.1,0,0.5,6.4,7.1,0
60,271,0.1,-0.1,0,0.5,6.3,7.1,0
60,361,0,-0.1,0.1,0.4,6.4,7.2,0
60,448,0,0,0.2,0.4,6.4,7.3,0
60,532,-0.1,0,-0.1,0.4,6.4,7.1,0
60,618,-0.1,0,0,0.4,6.4,7.2,0
60,709,-0.1,-0.1,0.1,0.4,6.3,7.3,0
60,794,0,-0.1,-0.1,0.5,6.4,7.1,0
60,879,0.1,-0.1,0.1,0.6,6.3,7.2,0
60,966,-0.1,-0.1,0,0.4,6.3,7.2,0
60,1058,-0.1,0,0.1,0.4,6.4,7.2,0
60,1146,-0.1,0,0,0.5,6.4,7.1,0
60,1235,-0.1,-0.1,0,0.4,6.3,7.1,0
60,1321,-0.2,-0.1,0.1,0.3,6.4,7.3,0
60,1416,-0.1,-0.1,0.2,0.3,6.4,7.3,0
60,1502,0.1,0,0,0.5,6.4,7.3,0
60,1590,-0.1,-0.1,-0.1,0.4,6.4,7.1,0
60,1675,0,-0.1,0.3,0.5,6.4,7.4,0
60,1763,0.4,-0.3,0.2,0.8,6.2,7.3,0
60,1848,-0.4,0.2,-0.2,0,6.8,6.8,0
60,1932,-0.1,-0.2,0.2,0.3,6.4,7.2,0
60,2041,0,-0.1,0.1,0.3,6.5,7.1,0
60,2118,-0.1,0.1,0.2,0.4,6.6,6.9,0
60,2204,0,-0.2,0.2,0.4,6.4,7.2,0
60,2303,0.1,-0.1,0.4,0.5,6.4,7.4,0
60,2394,-0.1,0,0,0.3,6.5,7.1,0
60,2481,-0.1,0,-0.1,0.4,6.5,7,0
60,2567,0.1,-0.1,-0.1,0.6,6.4,7,0
60,2651,0,-0.1,-0.1,0.5,6.4,7,0
60,2738,-0.2,-0.1,0.4,0,6.5,7.6,0
60,2830,0.1,-0.2,0.4,0.6,6.4,7.4,0
60,2916,-0.2,-0.1,-0.3,0.3,6.5,6.8,0
60,3009,0.1,0,0.3,0.3,6.6,7.3,0
60,3096,-0.2,0,-0.7,0,6.7,6.3,0
60,3186,-0.1,0,-0.3,0.2,6.7,6.6,0
60,3272,0.4,-0.3,0.6,0.9,6.1,7.5,0
60,3360,-0.3,0.2,0.8,0,6.7,7.7,0
60,3448,-0.3,-0.1,-0.1,0.1,6.5,6.9,0
60,3533,0.2,-0.3,0.2,0.3,6.5,7.4,0
60,3621,-0.3,0,0.3,0.1,6.6,7.3,0
60,3706,0.2,-0.3,-0.4,0.6,6.4,6.5,0
60,3798,0,0,0.2,0.4,6.6,7.1,0
60,3883,0.3,-0.1,0.1,0.7,6.5,7.1,0
60,3968,-0.1,-0.1,0,0.4,6.5,6.9,0
60,4057,-0.1,-0.1,-0.1,0.3,6.6,6.8,0
60,4143,0,0,0,0.4,6.7,6.9,0
60,4228,-0.1,0,0.1,0.4,6.6,6.9,0
60,4315,0,-0.1,0,0.5,6.5,6.9,0
60,4400,0,0,0.3,0.4,6.6,7.2,0
60,4486,0,-0.1,-0.1,0.3,6.6,7.1,0
60,4577,0,-0.1,-0.2,0.5,6.5,6.7,0
60,4662,0,0,0.5,0.4,6.6,7.4,0
60,4748,0,-0.1,-0.1,0.5,6.6,6.8,0
60,4833,-0.1,0,0.1,0.4,6.6,7,0
60,4919,0,0,0,0.4,6.5,7,0
61,82,-0.3,0.2,-0.4,-0.1,7.1,6.4,0
61,167,-0.3,0.1,0.2,-0.1,7,7,0
61,261,0.1,-0.2,-0.3,0.4,6.6,6.5,0
61,346,0.1,-0.2,0,0.4,6.6,6.8,0
61,432,0,-0.1,0.3,0.2,6.7,7.1,0
61,521,-0.5,0.1,0.2,-0.1,6.9,7,0
61,610,-0.2,0,-0.5,0.2,6.8,6.5,0
61,696,-0.3,-0.1,0.3,0.1,6.7,7.4,0
61,785,0.1,-0.2,0.1,0.5,6.5,7,0
61,871,-0.1,0,-0.1,0.4,6.6,6.9,0
61,962,-0.2,-0.1,0,0.3,6.6,7,0
61,1047,0.3,-0.3,-0.1,0.7,6.4,7.1,0
61,1135,0.2,0,0.5,0.7,6.6,7.4,0
61,1222,-0.4,-0.2,0.5,0,6.4,7.3,0
61,1306,-0.3,0.2,0.6,0,6.9,7.4,0
61,1393,-0.1,-0.2,-0.4,0.3,6.5,6.5,0
61,1478,-0.1,0.3,0,0.4,7,6.9,0
61,1562,0.1,-0.2,1.1,0.2,6.5,8.2,0
61,1654,0,-0.2,-0.2,0.5,6.6,6.7,0
61,1739,0,-0.2,0.1,0.4,6.5,6.9,0
61,1824,-0.1,-0.2,0.1,0.4,6.5,7,0
61,1911,0.1,-0.1,0.2,0.6,6.6,7.1,0
61,2000,0,0,-0.1,0.5,6.6,6.7,0
61,2088,0.1,-0.2,0,0.6,6.5,6.9,0
61,2172,-0.2,0.2,0.2,0.2,6.9,7.2,0
61,2257,0.1,-0.3,0.3,0.4,6.4,7.3,0
61,2345,-0.2,0,-0.1,0.3,6.7,6.7,0
61,2432,-0.3,0.2,0.3,0.1,6.7,7.6,0
61,2521,0.1,-0.1,-0.2,0.6,6.5,6.9,0
61,2612,0.2,-0.1,0,0.8,6.6,7.1,0
61,2696,0.1,-0.3,-1,0.5,6.7,5.7,0
61,2786,0.5,-0.2,0.1,0.9,6.5,7.1,0
61,2870,-0.2,-0.2,-0.4,0.3,6.6,6.3,0
61,2963,-0.1,0,0.4,0.2,6.8,7.2,0
61,3046,-0.2,-0.1,0,0.1,6.7,6.8,0
61,3153,0,-0.1,0,0.4,6.7,6.8,0
61,3240,0,-0.1,0.1,0.4,6.7,7,0
61,3327,-0.2,-0.1,0,0.2,6.7,6.9,0
61,3415,0.2,-0.2,0,0.5,6.6,6,0
61,3511,-0.1,0,-0.7,0.2,6.9,6.1,0
61,3596,0.4,-0.3,0.8,1,6.3,7.7,0
61,3688,0.4,-0.3,0.1,1.2,6.2,7.1,0
61,3772,0,-0.2,-0.1,0.9,6.3,6.9,0
61,3859,0.1,-0.2,0,0.9,6.3,7.1,0
61,3943,-0.2,0.2,0.5,0.6,6.6,7.7,0
61,4037,-0.4,0.2,-0.1,0.5,6.8,6.5,0
61,4128,-0.9,0.4,0.4,-0.2,7,7.5,0
61,4215,-0.2,-0.3,0,0.9,6.3,7.1,0
61,4303,1,-0.8,0.5,2.1,5.7,7.6,0
61,4386,1.1,-0.9,0.5,2.3,5.5,7.8,0
61,4475,0.3,-0.5,-0.5,1.4,5.8,6.7,0
61,4561,-0.3,-0.2,-0.1,0.6,6.2,7.1,0
61,4648,-0.8,0.2,-0.4,-0.1,6.5,7.1,0
61,4736,-0.2,-0.2,0.3,0.4,6.1,7.7,0
61,4827,0.1,-0.4,0.2,0.6,5.6,7.6,0
61,4911,0.3,-0.5,-0.2,0.6,5.6,7.3,0
62,2,0.3,-0.5,0,0.5,5.6,7.2,0
62,88,-0.5,0.1,0.9,-0.2,6.1,8.1,0
62,176,-0.5,0,0,-0.6,6.2,7.3,0
62,261,0.4,-0.4,0.4,0.2,5.9,7.7,0
62,345,0.5,-0.4,0.1,0,5.9,7.6,0
62,434,-0.8,0,-0.3,-0.9,6,6.9,0
62,520,-0.4,0,2.2,-0.7,5.9,9.5,0
62,606,-0.1,-0.2,0.4,-0.2,5.6,8,0
62,690,0.2,-0.3,-0.2,0.2,5.7,7.3,0
62,776,-0.3,-0.3,0,-0.3,5.8,7.5,0
62,865,-0.3,0,0.3,-0.3,6,7.7,0
62,964,-0.5,0,0.7,-0.5,6.2,8,0
62,1057,0,-0.2,0.1,0,6,7.4,0
62,1141,0.5,-0.2,0.3,0.4,6.1,7.6,0
62,1226,-0.1,-0.1,0,-0.1,6.1,7.5,0
62,1310,-0.4,0,0.3,-0.4,6.1,7.6,0
62,1396,-0.2,0,0.3,-0.4,6.2,7.8,0
62,1483,0.3,-0.1,-0.1,0.3,6,7.3,0
62,1572,0.4,-0.1,-0.1,0.4,6,7.4,0
62,1658,-0.1,-0.1,-0.3,-0.3,6.1,7.1,0
62,1746,0,0,-0.1,-0.2,6.2,7.3,0
62,1838,0.1,-0.1,0.3,0,6.1,7.7,0
62,1926,-0.8,0.2,-0.9,-1.3,6.7,6.2,0
62,2013,-0.1,0,0.3,-0.6,6.5,7.6,0
62,2100,0.1,-0.1,-0.1,0.1,6.3,7,0
62,2185,-0.2,0,-0.3,-0.5,6.5,6.9,0
62,2270,-0.2,-0.2,0.4,-0.3,6.2,7.4,0
62,2356,0.1,-0.1,0,-0.1,6.4,7.2,0
62,2442,-0.4,0,0.1,-0.6,6.5,7.2,0
62,2528,0.1,-0.2,0,0,6.4,7.1,0
62,2613,0.1,-0.1,0.3,0,6.5,7.3,0
62,2706,-0.1,-0.1,0.2,-0.2,6.5,7.1,0
62,2793,0.4,-0.1,-0.3,0.4,6.4,6.7,0
62,2880,0,-0.1,0.1,-0.1,6.4,7.1,0
62,2965,-0.2,0,0.3,-0.2,6.5,7.5,0
62,3054,-0.1,0,0.1,-0.1,6.5,7.2,0
62,3144,-0.1,-0.1,0.4,-0.2,6.4,7.6,0
62,3237,0.1,-0.1,-0.1,0.1,6.4,7,0
62,3323,0,-0.1,-0.2,0,6.4,6.9,0
62,3408,-0.1,-0.1,0,-0.1,6.3,7.2,0
62,3496,0.1,-0.1,0,0.1,6.3,7.2,0
62,3582,0,0,-0.1,0,6.4,7.1,0
62,3668,0,-0.1,0.2,0.1,6.3,7.4,0
62,3752,-0.2,0,0,-0.2,6.4,7.2,0
62,3838,-0.1,0,0.1,-0.1,6.3,7.3,0
62,3924,0.1,-0.1,0.1,0.1,6.3,7.3,0
62,4011,0.1,-0.1,0.3,0,6.3,7.6,0
62,4095,-0.2,0,-0.1,-0.1,6.4,7.1,0
62,4188,-0.1,0,0.1,0,6.3,7.3,0
62,4281,0.1,-0.1,-0.2,0,6.3,7.1,0
62,4371,0,-0.1,-0.5,0.1,6.2,6.7,0
62,4456,0,-0.2,-0.1,0.2,6.2,7.2,0
62,4540,0.3,-0.2,-0.1,0.3,6.2,7.4,0
62,4624,0.4,0,-0.5,0.4,6.4,6.7,0
62,4709,0,0,0.3,0.1,6.5,7.5,0
62,4798,-0.4,-0.1,0.5,0,6.3,7.5,0
62,4887,-0.1,0.2,0.4,0,6.6,7.5,0
62,4971,0.1,-0.1,0.2,0.2,6.4,7.2,0
63,19,0.2,0,0.4,0.2,6.5,7.4,0
63,104,0.3,-0.5,-0.3,0.3,6.3,6.5,0
63,191,-0.7,0.4,-0.6,-0.8,7.2,6.1,0
63,281,0,0.2,-0.2,-0.1,6.9,6.4,0
63,365,0.2,-0.5,0,0.5,6.2,6.9,0
63,451,0,-0.1,0.4,0.1,6.5,7.3,0
63,537,0,-0.2,-0.2,0.2,6.5,6.7,0
63,622,-0.1,0,0.1,0.1,6.6,7,0
63,710,-0.1,0,0.1,0.1,6.6,7.1,0
63,799,0,-0.1,0,0.2,6.6,7,0
63,891,0.1,-0.1,0.1,0.3,6.5,7,0
63,979,0,-0.1,0.2,0.3,6.5,7.1,0
63,1072,-0.1,-0.2,0.1,0.2,6.4,7,0
63,1160,-0.1,0.1,-0.3,0.1,6.7,6.7,0
